accel_x,accel_y,gyro_z,imu_variance,wheel_speed,imu_speed,speed_difference,accel_magnitude,slip
-0.9058042609086392,0.7825035662398576,-0.07903966972179569,0.5240869881271191,4.909707656290779,4.9690544509741885,0.05934679468340942,1.1969933960796697,1
-0.2531230396888729,-0.41980202251344606,0.051451209405867296,0.08973878369308827,3.9897738352354972,3.938844311735599,0.0509295234998981,0.49020915059565606,0
-0.36806089258307434,-0.4870946266830378,0.2725481653997925,0.01493288730378798,3.3075312633123732,3.7311808519628302,0.423649588650457,0.6105161717698699,0
0.2784758863304983,0.0037040024826263456,-0.12613846513551516,0.07023443951542448,0.6601560386291437,0.7908894335723651,0.13073339494322134,0.27850051867446834,0
-0.44287330795270424,-0.058283983136262936,0.27135993709829587,0.08819431117134381,3.0970268707455793,2.931310669699352,0.16571620104622742,0.4466920522991191,0
-1.0934474383467727,1.113346100127977,-1.5210471975710969,0.29402707839244463,0.5274563503571426,-0.27149485979591825,0.7989512101530608,1.5605021112120594,1
-0.08027408735013192,0.33377615431715596,-0.23901411270301126,0.0954340583953288,1.1618306641806706,1.2140819250675896,0.052251260886919004,0.343293533715167,0
-0.48368134007381897,-0.08048258274022634,-0.4384720023010087,0.2027973862940135,0.6861371036868821,-0.5714924196908594,1.2576295233777415,0.49033160703766865,1
1.7845669775260193,-0.7803803839221568,-1.4510379087981726,0.3361759662281831,1.016803184928745,0.8598041443107165,0.1569990406180286,1.9477353107870805,1
-0.42697357318419976,-0.06700814683190265,0.009932271141643478,0.08596225034156525,0.8660695128885489,0.8924979862639528,0.026428473375403883,0.4321996343583935,0
0.5935560615071046,0.015335916060215912,0.5007273284576665,0.09718452600133169,2.2467456775714796,2.2110746219575885,0.035671055613891056,0.5937541481734943,0
-0.9739195378294654,0.39363093317006514,1.214588620178292,0.9195878925274548,3.297229689141869,2.8462482769380726,0.4509814122037965,1.0504592222996072,1
1.63250206536191,0.44848834150181516,0.10963143555461832,0.7737849919042309,2.7585084773981237,5.125481137457147,2.366972660059023,1.6929869420270054,1
0.40580953034744666,0.4426684586359808,-0.2578396456184477,0.6617738974630242,2.3828209688590256,2.822599026593848,0.43977805773482226,0.6005303815727979,1
0.1568178015474023,-0.21826313991930685,-0.03653795333626411,0.09751374638035731,1.226153112747724,1.2693573679935475,0.043204255245823386,0.2687575508327075,0
1.6785327900598102,-0.606076024571833,-0.14168822239910348,0.41580389981163524,1.3047312748674142,0.5493526081225136,0.7553786667449006,1.7846009287419884,1
-0.3689405316247672,0.3058949149398184,0.08520500235859568,0.054839900170675374,2.7167814229679133,2.8938006490291426,0.17701922606122933,0.4792586095852683,0
-1.1306297837714463,-0.02470095678550502,0.32919141280757347,0.8442648349933288,4.289068259138968,4.501095071225431,0.2120268120864628,1.1308995734446037,1
-1.0822134822423444,-0.7324878030269606,0.4086120298307868,0.5308828837423891,4.763319421710855,5.293628695452415,0.53030927374156,1.3067992970346918,1
2.2642282021314033,-0.2471315658341093,0.41215082455065744,0.615824410380566,4.210501211538956,3.005712790735208,1.204788420803748,2.277674990458214,1
-0.6654090590622151,-1.417721097749017,-0.37309092327946675,0.15132015941579477,0.5151489533222149,0.1762695007531131,0.3388794525691018,1.566110573007136,1
-0.11204440310000248,-0.3770423023430444,0.007714648395250739,0.050163465691069095,1.0171984867680508,0.8557413086577421,0.16145717811030869,0.39333808107298684,0
-1.1873473720943408,-0.15707462300443828,0.07879264474692094,0.13187621472618608,4.755873660016686,4.512997701539306,0.24287595847737986,1.1976920385521996,0
0.19908565723661079,1.4954030648544672,-0.6019828360348193,0.9384515662401993,0.7499574865472134,1.3055860900104563,0.5556286034632429,1.5085971713129607,1
-0.18479023918851362,0.4866746155913905,-0.2746648559521643,0.14362287213195601,3.8373227935335,3.7978092482655748,0.03951354526792539,0.5205762326118777,0
-0.004615379326330304,1.4259298596757735,0.17081728272809424,0.3015329774581489,1.3428367147008773,1.717738257500811,0.3749015427999338,1.425937329072108,1
-0.6820830431104068,-0.20181944250259268,-0.13073813739925141,0.04127166723210418,2.2272482836986978,2.1690535383625797,0.058194745336118014,0.7113145331502867,0
-0.31726003181966805,0.5349117434556562,-1.0335841692866459,0.7515610210822162,3.091696043161064,4.679611475700155,1.5879154325390914,0.6219200117997382,1
0.1429477304081369,1.8041250356104745,-0.34096918521271613,0.3167116015648567,4.868011517884079,4.300100841370868,0.5679106765132111,1.8097793229411516,1
0.9817753027502507,0.19135735839996176,-1.0102271340439297,0.42780901001301463,3.1984887258098857,2.9886770293563107,0.209811696453575,1.0002501605619256,1
-0.3065865724079151,0.22705563102293225,-0.11844887552480271,0.03842812968799543,3.7156816521502805,3.6719178573114997,0.04376379483878079,0.3815096145053958,0
-0.12577751611905175,-0.15459921324016315,0.722270012563134,0.09524577785592722,1.0018049554457438,0.6450402064647445,0.3567647489809993,0.1993010293389268,0
-0.3442029306021242,-0.29261542732215595,-0.04248148476364111,0.07508897113532689,3.5714321544522067,3.650554279406366,0.07912212495415938,0.45177366649907635,0
0.3837013505796153,0.08563274743239829,-0.011154867535962613,0.10486583894150381,4.3026784200348915,4.382308494344964,0.07963007431007263,0.3931408066703859,0
0.26435447432670145,0.8876856455078249,0.7279378148333078,0.5915053821027939,0.8199002670989768,0.26783118603943024,0.5520690810595466,0.9262122291015112,1
-0.48173193087158417,-0.0578545153012481,-0.04531822370544583,0.024016036251842454,3.9142189452376432,4.029714254937927,0.11549530970028377,0.48519356772530187,0
1.7012719611396516,1.2649103931058656,1.18343957830439,0.5823139133887824,4.679034828773367,5.97836850243111,1.2993336736577428,2.1199822141582207,1
0.13861080732520017,0.2795421370934937,0.08100592088883861,0.10368679443306944,2.232939778708664,1.8689809681283824,0.36395881058028134,0.31202045176260707,0
0.1412156993660004,0.22800591774707643,0.2345442359646225,0.06932566577543318,3.6924748908528864,3.6928096341772467,0.0003347433243603426,0.2681950265667042,0
1.937910630392832,-0.04697132135369182,1.2927075094516283,0.8981852242484388,3.8152279616812215,4.0443493051992645,0.22912134351804303,1.938479795205319,1
0.7139359922987444,0.024298284698656306,0.41438241030508627,0.2271298009177682,1.9530589540400183,1.7521311520909644,0.2009278019490539,0.7143493597245607,1
-0.02049433421287662,0.08326460876676185,0.2703914610796917,0.06886102524592574,4.137788066524076,4.3548839214328465,0.21709585490877092,0.08574971024972038,0
1.1015260352061367,-0.03525088717543584,1.043486807928705,0.5910819055223346,3.377866474480782,4.832319146276381,1.4544526717955994,1.102089937928664,1
-0.1963491579574263,0.4095702957841055,0.30597669768103014,0.10273020146443863,0.5820466220436273,0.7919695860894788,0.20992296404585142,0.45420349956739653,0
-1.1072096998545975,-0.01935816162592517,0.38806408624019384,0.9708661671442795,0.8226089613294436,1.623261842442281,0.8006528811128375,1.1073789134138519,1
0.5476378331051406,-0.14240751913659438,-0.007903308446312205,0.1105950860594086,2.480686221828206,2.726778406351449,0.24609218452324289,0.565850773397663,0
0.13634583969928857,0.08488248706591496,-0.013478850638758486,0.1293925576587061,1.3964885862668441,1.202199793166776,0.19428879310006808,0.1606089182262284,0
-0.3331453100618141,0.02119943225653586,-0.14055543319840072,0.11295461407500348,3.673126155067535,3.7780457921018904,0.10491963703435525,0.3338191329809927,0
-0.1685931988665451,-0.2371554753022417,-0.34712617517100375,0.035647673545498,2.544698005519824,2.5534535491425085,0.008755543622684492,0.2909748892428462,0
0.08578530698702053,0.390990334214926,-0.13673809702485037,0.07432560682261641,4.692891737447674,4.773503537870731,0.08061180042305693,0.4002905948737203,0
-0.2541221478486659,0.4025190307974123,0.32328511149800804,0.12006759441567853,1.3357988240233354,1.432082942452131,0.0962841184287957,0.47602482727406914,0
-0.7435157480858894,-0.41672639221271707,-0.28644711461922334,0.5372532846445504,3.8179489524904455,2.1157248913954305,1.702224061095015,0.8523359394149393,1
-0.1594368155655036,0.04191253884666395,-0.1630560658782245,0.12062811536539836,3.4180905060510667,3.4107756582745994,0.0073148477764672926,0.16485375054951443,0
1.4736935075547868,0.3866795573855267,-0.2431857398419445,0.22112827768568458,4.744182421449534,5.103625665033262,0.35944324358372803,1.5235792182584393,1
-0.2653353294049207,-0.3279301082276725,0.3268548971953062,0.0876394906516627,3.879229092634932,4.081605949968238,0.2023768573333058,0.42183052629300166,0
1.0279721695365935,-0.11190681142898642,-0.6613567165643749,0.33369341692416865,0.8724584008484998,0.7408547625925802,0.13160363825591959,1.034045412825749,1
-0.11380412173568887,0.06072563517781286,0.00582081342968226,0.1454972927142959,2.8341544747126775,3.0305710899230744,0.196416615210397,0.12899217376174538,0
0.9334660514338866,0.34007004169219235,1.1939814676067184,0.3473637374946286,3.0240586464613255,1.5112346535261576,1.512823992935168,0.9934820091154649,1
-0.44053065150788395,-0.024448749271050722,-0.03356708647608615,0.025490418733068593,2.694325143502449,2.4832785241868507,0.21104661931559843,0.4412085632202523,0
0.38853771381659263,-0.29395274508479946,0.06727134749412292,0.08961229205880829,2.986254353335501,2.8834031156969817,0.10285123763851933,0.48720608719587394,0
0.12973828447796953,-0.11698093058331188,0.19920650066150516,0.10148237675790905,1.854336051260673,1.91973691754406,0.06540086628338693,0.1746898983325143,0
0.03796569309500722,1.3947439303415397,0.5797647015692888,0.5718809085616621,1.2865232410893728,1.4455169323446992,0.15899369125532647,1.395260558131258,1
1.1116650533336399,0.46912500520222267,-0.35697884112948264,0.42441277768126184,2.3853580143851625,2.8645855660551174,0.4792275516699549,1.2065974727759337,1
0.3587189328132941,-0.2401117384959704,0.11578260475457991,0.05566920585832417,3.899980123443719,3.9589761809445174,0.05899605750079839,0.43166297006144255,0
-0.10489342775314237,0.26696416932359995,0.3785307416674228,0.026944257721055923,3.3960996283843623,3.285295003634928,0.11080462474943431,0.28683183032648846,0
1.3435812203831226,-0.5758348285261615,0.039759280698806715,0.9773311289053809,1.8539404863094353,3.139225698687813,1.2852852123783778,1.4617784529503624,1
-0.4054423369417875,0.26384138668767665,-0.39373642761667743,0.106137921040532,2.053364938223947,1.8914350103990414,0.16192992782490578,0.4837310884304357,0
-0.1505677972435919,-1.6783371870870394,-0.3209297800666708,0.962438839851967,3.758318466480989,2.696691521021801,1.0616269454591878,1.6850775575996564,1
-0.9823169991879294,-1.1310018319095803,-0.10187527155450955,0.7260568612793691,4.51341077266889,5.421174770638144,0.907763997969254,1.4980359911151684,1
0.04824341904543145,-0.480253284705814,-0.023677567468845615,0.10589926117066205,2.7389293346574597,2.7385739972375385,0.00035533741992122003,0.4826703273994754,0
0.20047040253276224,1.7243757183693078,0.0027009010222111265,0.6113300385933585,1.8971508040078522,1.78938180134923,0.10776900265862221,1.735989631418723,1
-0.4660807999861154,0.3146903099400171,0.07837732578842245,0.11869507936930827,4.651247215297831,4.725617968451966,0.07437075315413555,0.5623711437172442,0
-0.14168744636665626,0.27163263947470545,-0.08110653835249158,0.05264206017233035,1.9124397352511173,1.9450209258803774,0.032581190629260126,0.3063651796237611,0
-0.008923415564972476,0.12995725066775668,-0.07757876498684406,0.02267817513185369,1.1821778366004472,1.3213914282491093,0.1392135916486621,0.13026325017620025,0
0.18090975105943152,-0.13901313936985085,0.016328546884231847,0.11317399843375782,4.931862812431142,4.733510697228647,0.19835211520249452,0.22815124576878176,0
1.9578404728116996,-0.8291498924608531,0.30782660178865434,0.8619332467974933,3.1070925726790843,2.837359388972408,0.26973318370667654,2.1261770531043234,1
0.3183455249364906,-0.037396328829344044,-0.25997488147369047,0.07137972569378874,4.715733826961411,4.739429973799129,0.023696146837718146,0.3205344890288753,0
-0.35868241620504304,-1.141795161539408,-1.0787337574768463,0.31109087275880354,3.2186906179941284,3.8020149188227985,0.5833243008286702,1.1968079489247598,1
0.9247844598810027,1.5726879142229908,0.23482661515437425,0.6405071670185929,2.414642480157997,1.8483302102965797,0.5663122698614174,1.8244378785753324,1
-0.29923639313946504,-0.39333673740143493,-0.08241113095211533,0.11382860235037352,4.835274953960977,4.840508146024388,0.005233192063410996,0.4942228323021124,0
-0.4213514939818749,-0.518269825499446,0.22190801563675822,0.7081486869705421,1.5346495958481081,2.597304241321894,1.0626546454737857,0.6679376419277357,1
-0.05456886011104642,-0.1875647019229342,0.2374254504816051,0.06893606045495586,1.2891707538055233,1.129537752782921,0.15963300102260236,0.19534143928326655,0
1.075232814793417,1.2504222618040932,0.31735180946330854,0.46355556386087526,0.5762975967082791,-0.24740217849164037,0.8236997751999194,1.6491456693766742,1
0.6428076032997124,-0.17649629137472764,-0.19678961317651092,0.04922892281025434,2.9779852074838318,2.7029293423394165,0.27505586514441527,0.6665977465675632,0
1.3621596061279606,-0.06004897606047364,-0.5540154554578474,0.8216571204044336,4.467679434508347,3.3117198480779098,1.1559595864304373,1.363482552910961,1
0.20820499865131184,-0.4603914041211401,-0.22786233441351011,0.015685328642404704,2.158020139624605,1.8751008340319508,0.282919305592654,0.505281670409711,0
-0.2652368695301552,-0.01836826364105447,0.24088159122612934,0.0648269256404463,2.0773424042877284,2.079596566830793,0.0022541625430645418,0.2658721310467569,0
-0.3299842746364964,-0.13788185002540743,0.00951588343055756,0.022300626505855667,4.577391772165672,4.522224093180014,0.055167678985657886,0.35763252938428797,0
-0.46977078211714923,1.4473831210454928,-0.6884545615539561,0.8335860717085132,1.3685211705676377,1.0638779565464935,0.30464321402114414,1.5217103820432947,1
2.7372689083670583,-0.4792397992853456,0.15715946346051574,0.9867901292450525,4.153449013503952,5.275816958805078,1.122367945301126,2.7789047954062847,1
1.2031270322715064,-0.5543763304221245,1.4921300655797274,0.7985822182816305,2.1310225880626996,2.4554360589112356,0.324413470848536,1.3247066737639481,1
0.6849662134835939,-0.002130451022549934,0.46961459485980367,0.33836103707060244,3.766198508056248,3.9930668275675747,0.2268683195113268,0.6849695266474355,1
-1.4358260354036367,0.40727196076859085,-0.25702989079396255,0.862872154200082,3.6738284807283863,2.266668308454376,1.4071601722740104,1.49247005128117,1
0.19830622920620414,-0.22102728525748033,0.3427059458680559,0.10365284257225094,3.952347300190071,4.073552728600382,0.12120542841031101,0.2969485163631486,0
0.5380468694447154,0.1767438661176498,0.13668344624777828,0.011255147044606785,2.491454816666355,2.898073961522435,0.4066191448560801,0.566332789029094,0
0.16315162035899639,-0.038094374317794256,-0.2951357496380317,0.08949840576964685,2.5879176417509933,2.612891610818262,0.024973969067268786,0.1675399432387104,0
-1.7793480754126074,-0.4769578416701536,-1.3864762277771712,0.1951766633308939,0.6115474941659981,0.9688847311321144,0.3573372369661163,1.8421640416111702,1
-0.41585872525172574,-1.1478371365643365,-0.35675271744277093,0.6450396075220719,1.0230574121479403,1.2724989422077946,0.24944153005985426,1.2208474808280538,1
-1.0999704233062872,-0.16260941596882517,0.273278603041193,0.39721414625407414,0.8910047190472166,1.7792595172396122,0.8882547981923956,1.111924797057038,1
0.704250012432362,0.09131673501862403,0.010459109877665402,0.8489886360127384,3.1873698955101974,3.7012626132706234,0.513892717760426,0.7101456372501654,1
0.6231621729273428,0.13128616469706786,0.014748157241308983,0.05825285845636993,0.6508959563110073,0.8619361681947699,0.21104021188376265,0.6368415429354409,0
1.7433433604712711,-1.2875634585024915,0.03436986746693052,0.8374359999550731,1.1020970209969518,1.4977829761970174,0.39568595520006555,2.167271494799431,1
-0.14755324117480956,0.06863404689582042,0.004724120482930015,0.12704407970187778,1.8845559026507683,1.7733311651638597,0.11122473748690864,0.16273472700837147,0
-2.01875475783509,-0.24335094514726563,-0.7560260497189347,0.39933302727398134,2.078711660839368,2.359609097914676,0.28089743707530834,2.033369237198665,1
0.38175491277632584,-1.526615524383037,-0.4632651430803659,0.7389850978604121,2.435467552744472,2.5218661894935854,0.08639863674911341,1.5736237710190308,1
-0.21728060015053485,0.19622217187354632,-0.2447338544121542,0.02552936547488859,4.905972221068195,4.776858700812922,0.1291135202552729,0.29276953382575205,0
0.3722133277298366,-0.2559336113194546,-0.21796060883338675,0.05138195554361679,1.298429462613681,1.4750072070913318,0.17657774447765084,0.45171315537931417,0
1.270034256295627,0.21500854559505003,1.1013678029627725,0.3040786140232161,1.2159726761869207,-1.1084179635247022,2.324390639711623,1.2881054641772487,1
-1.6671424396304164,1.2655249413245324,-0.05869859521893521,0.6116571298719169,4.251333197557834,4.4531818345156955,0.2018486369578616,2.0930640915010983,1
-0.12328637126433198,0.21250106699239826,-0.30379903265144054,0.030777267525414875,3.8803012151378815,4.018281942531046,0.13798072739316458,0.2456750553321082,0
-1.01113804870669,1.5206255520884797,1.0132436408219545,0.8310313697015155,4.004380059294318,4.06932844318137,0.06494838388705215,1.8261167058013479,1
-1.1600516658387707,1.78978005954834,-0.46749014092263874,0.5320876099516572,1.8840271625627882,2.579527643010019,0.6955004804472309,2.1328461100070406,1
0.33283680734957843,-0.2867663999297692,0.23800775064140867,0.136589336721857,1.1925495711219816,1.051339095771678,0.14121047535030362,0.4393350753756644,0
-0.020989542425219776,0.162622409997109,-0.35022172117446404,0.06549464927519653,4.142822336261951,4.112090836682244,0.030731499579707666,0.16397136678239868,0
1.331386274693531,-0.6664482964095892,-0.8068346121930047,0.21153684774049847,3.4985540454115656,2.8283765908416516,0.670177454569914,1.4888729778693555,1
-0.23590369626685415,0.25608794746499136,0.18780197570436774,0.04051680519327682,1.406877701028408,1.403234726677904,0.0036429743505039802,0.3481832717825432,0
0.28439011287775606,0.024856671485605126,0.4632932291208155,0.5784296860592928,3.6614577782471547,3.812493509217329,0.15103573097017442,0.2854743253253541,1
0.3970512411917718,0.339929553250224,0.20054428303546273,0.12232955403050938,3.0645035819209245,2.991885807733202,0.07261777418772253,0.5226870854582342,0
-0.2094817131558101,-0.17063501153838642,-0.08481531867339578,0.11151871965666016,4.737765702285163,4.581735895641842,0.15602980664332122,0.270183077392716,0
0.7705381622884536,-0.13368770114772874,0.33100844429374643,0.11799726165804532,3.54417687284272,3.5357990454447985,0.008377827397921589,0.7820495259131813,0
2.81976077855271,0.3466376977709841,1.0529654128934522,0.9854537807964043,3.694669550129312,5.129022775201129,1.434353225071817,2.8409872477327585,1
-0.6178398907622493,0.2314511603990148,0.1335072189588263,0.1471327665037192,0.6871053193096719,0.7524974637669928,0.06539214445732089,0.6597694826734248,0
-0.4607519510540591,0.4280150949568571,-0.48866669541372654,0.6281867553482456,4.478766889517667,5.723775938329362,1.2450090488116947,0.6288793858213588,1
0.07456506697439477,-0.6095662369997966,-0.23259841008370055,0.6648963644435658,2.2963189558429153,1.3995125771770875,0.8968063786658278,0.614109881456884,1
0.4505734866984121,0.11292505024398482,-0.29203005241327984,0.02480291911085479,1.4671068666637814,1.373219464011091,0.09388740265269035,0.46450891690921353,0
-0.5935223420133293,0.010479510059656385,0.1149445882150524,0.020639754162297304,4.459615820271566,4.289270434557891,0.17034538571367452,0.5936148503870822,0
-0.1310533749239843,0.4235439395477641,-0.05209770656267059,0.09449998931915402,3.0951607948599036,3.156953744719175,0.06179294985927131,0.4433559019643321,0
0.9376215115330505,0.04869350140701681,0.05010892566467271,0.055178261903451,1.54999770192197,1.4073940979096817,0.14260360401228822,0.9388850600413223,0
-0.06037901471488328,0.5462631646362083,0.23870305661524818,0.7798446062806779,4.891147267703119,5.498121980874606,0.6069747131714864,0.5495899111667765,1
0.6077345404362577,-0.2811639220832485,-0.03697699661973719,0.04732223737283046,2.38877292616755,2.3132374833313927,0.07553544283615743,0.669622597229592,0
2.0302984693309285,0.6187257701668915,0.9521894279941511,0.5942487777692756,4.01824767391476,3.2606128018244482,0.7576348720903119,2.1224828511053095,1
0.2693715251014774,-0.3303084344159229,0.26195143317480724,0.025155629503184614,0.7813683308428059,0.8168018777824408,0.03543354693963496,0.42622139831523465,0
-0.25030921749271057,-0.02346140405584163,0.1275863920110578,0.0905839085614298,3.2603683817110545,3.4328191845428666,0.17245080283181213,0.25140632816634617,0
0.2095059330312109,-0.7874194240310547,1.5164923368848164,0.5535934496795492,4.627127818369779,4.940290906249102,0.3131630878793228,0.814814141578726,1
0.9273496690811814,0.011062202456737476,0.40449116985720446,0.15681429265401728,0.8422626942473812,0.025781387283342228,0.816481306964039,0.9274156463356495,1
-1.6476838004517536,0.19183166540928276,-0.15416189443226067,0.8646975554717967,3.08138659268021,3.527174441511897,0.4457878488316869,1.6588132185767128,1
0.30960910962842103,0.21135163919551386,0.011720787905143823,0.03775330958078411,2.852297732218973,2.848952689661265,0.0033450425577079557,0.3748697322477961,0
0.09139049954933924,-0.2848947208025071,0.5104884748197842,0.9722413602554347,4.478941411303531,6.9162460353137,2.437304624010169,0.2991942936438064,1
-0.39554893905423355,0.2124550913297266,0.10322699321758864,0.02088284893474264,4.799856631797206,4.946262739700598,0.1464061079033918,0.44899457571205936,0
-0.12471010397361565,1.0165230692343032,0.9116707364011173,0.2851309379397817,3.7408400581890553,4.420292730340864,0.6794526721518088,1.0241444040361878,1
0.015021230664225164,-0.18042411350386064,-0.1889761002248031,0.0514321256523291,2.927040088620428,2.968930264352907,0.041890175732478774,0.18104833085207345,0
-0.5089594775200497,-0.6623406883052636,0.364485565266838,0.2271625468470706,1.2079336728257162,2.481312162726355,1.2733784899006388,0.8353052957704581,1
1.9506548247594349,0.825612874832701,-0.7796002125315367,0.831391836573481,1.6463166293035183,1.9087421403058231,0.2624255110023048,2.1181810273078123,1
-0.36538343185288913,-0.082702629880568,-0.138900632276962,0.12444835180673672,4.7699849176399995,4.798721527069113,0.028736609429113713,0.3746261833638395,0
-0.46773752885040853,0.4276385974541704,0.14460825908174263,0.5939678848386218,3.6800753349140254,4.1092168545756325,0.4291415196616071,0.6337611268669425,1
-0.9045288664910263,-0.23635613977590825,-0.5746334467502586,0.3783017683073542,4.984828679410798,6.360868074808991,1.3760393953981929,0.9348992967829794,1
-2.29094358133593,-0.8957218718874094,-0.5085505951645061,0.8034939760617947,3.718054367462186,2.756171400656798,0.9618829668053879,2.4598252305076027,1
0.3687745512030467,-0.0825131838110002,0.160589985303899,0.12707757576085726,2.0957997093834946,2.3355479805296495,0.23974827114615493,0.3778929678065423,0
-0.30046688784955156,0.1408510901120131,-0.21738273898334248,0.06283013183914128,2.1696744334307123,2.3062372083835476,0.1365627749528353,0.33184240277537985,0
0.321594598356201,-0.04056213498962386,0.24012593219594458,0.1182411038644502,0.6753103085680889,0.697371832684985,0.022061524116896103,0.32414251878888506,0
-0.6905926750275605,1.8832987091150217,0.06635704163273044,0.5691865050983618,2.310128997425928,3.8231143088386146,1.5129853114126868,2.005924293326154,1
1.243777129707928,0.7007114452711356,-0.9107541658962756,0.816275598240111,4.374934213808597,5.425837706691681,1.0509034928830836,1.4275776959305773,1
-0.10761643675523298,-0.013848381370583926,-0.3328365909142055,0.032591481213611634,4.205985019753186,4.011269434200112,0.194715585553074,0.10850380235954037,0
0.759713428503453,0.06333798644024631,0.3531690510255221,0.954247101876018,1.9301050429550395,2.3243793610335945,0.39427431807855506,0.7623491286640105,1
-0.9709546782775882,0.3221274009582052,-0.34921295700882193,0.8438034616389012,1.8744708637047305,0.19062106073766172,1.6838498029670688,1.0229951367026253,1
-0.2915313319827661,0.19838905767737278,1.3075460573010826,0.785915993349041,4.860090894283949,6.29911908201046,1.4390281877265112,0.35263116103623304,1
-0.23537571690328285,0.5688111194141071,-0.10026287872775595,0.9468881940745588,1.7218693291149456,2.125985040101465,0.4041157109865192,0.6155873761513178,1
0.5314585646178575,-0.16078760253066382,-0.10312680681606544,0.11704767887581499,1.2673585565928118,1.2803632115049712,0.013004654912159408,0.5552484660341099,0
-2.445998281842416,-1.6215359442965345,0.8190230776096042,0.9793366110945492,2.549449697227365,2.249045738708591,0.3004039585187739,2.934669728167329,1
0.02215876471333366,0.29117769630997753,0.3927998471976869,0.09722693001120176,4.8190595918218255,4.827536189091659,0.008476597269833519,0.29201962550829763,0
0.5917927047443492,0.1842092810262948,0.28713542075995935,0.02492655459817176,0.7090268572399898,0.5436863961716115,0.1653404610683783,0.6197996971642185,0
-0.2398598045803728,0.6473474293472622,0.08990501763204226,0.05756945990234453,1.064974054543147,1.2276491340867859,0.1626750795436389,0.6903560097050241,0
-0.7375697810907058,1.3654796649925658,1.0132729472514683,0.7074425140830606,3.3548042513600436,3.2514972346935456,0.103307016666498,1.5519484197248314,1
0.6357765134246794,-0.19971288600432408,0.1178456569773274,0.06615626879167091,4.447402433658987,4.6132773936031946,0.1658749599442073,0.6664060412831037,0
-0.031436318387527765,0.02761718897153393,0.4061091446448405,0.025821056732637987,1.6637937569961745,1.5382302369539185,0.12556352004225602,0.041844369280124555,0
-0.0773363798718491,-0.19571662757437283,0.34454194214414563,0.01145588643034654,2.3467231536603337,2.3310717347123,0.01565141894803368,0.21044218674203302,0
2.8707920169908827,-0.8433264475723761,0.6377647679558331,0.3151331089777921,3.061777179357812,3.8130278424633017,0.7512506631054898,2.9920973082427693,1
-0.8310449871318204,-0.44806711057735155,-0.5876746334046508,0.6006387828187185,1.875587686075502,2.7862560591354084,0.9106683730599063,0.944139770488493,1
-1.6264888222237182,0.6542411426613085,0.7973612738902124,0.27620878140484895,4.747960271441959,5.331806101524474,0.5838458300825158,1.7531392875551768,1
0.2644611714645386,0.12737534570610148,-0.09432851572703171,0.02008177218430235,4.563027478363942,4.613649789572902,0.05062231120895966,0.2935373739511631,0
0.049501857009710826,-0.12834917019401537,-0.24792136227610448,0.026314594882897682,3.156038000910892,3.2375466250916634,0.08150862418077143,0.13756432436101368,0
-0.3328073478485654,0.4407879501159113,-0.03606015846078338,0.4401752388721242,2.1414561431808012,1.4954595639268793,0.645996579253922,0.5523176149186111,1
-0.9138688037601754,0.33603086258401627,-0.9740006303473487,0.5816493646293399,4.212400336700135,4.6884351454965625,0.47603480879642746,0.9736903671573485,1
0.2504355649004068,0.9328280049994027,-1.1475284933395107,0.740714605911637,2.1147519282550933,2.2436829722934823,0.12893104403838906,0.9658602689199672,1
0.21373888538151375,0.36886353276057354,0.059365421709176074,0.14142260712607252,2.2467646679293485,2.1006463909968933,0.14611827693245516,0.42631516149996657,0
0.1533820059416864,0.3801660432452965,-0.17680727484097614,0.14812579993580322,3.767411001751977,3.792055216557562,0.024644214805585207,0.4099417765774552,0
-0.27042174661952195,0.4220392632256977,-0.33778033371274585,0.07032808497504044,3.5915866992645924,3.7849162130455376,0.1933295137809452,0.5012435144207281,0
-1.4151054838071495,0.504015855623445,-1.0411484891253384,0.6817233243637986,2.616801888400377,2.7709066948966816,0.15410480649630465,1.5021835816640057,1
0.06048648853501881,0.1254735974651555,0.017133667670835403,0.11496483653982127,3.315568605176087,3.4253912890842972,0.10982268390821037,0.13929191992411058,0
1.1842982319397846,0.16627568087877964,-0.8649008126096202,0.7093930298260903,2.9801578665061847,1.754338293977345,1.2258195725288397,1.195913836456206,1
-0.185133967315923,0.657556435129919,0.5669114124873439,0.9306088007011792,3.0639503579742327,1.6983235516904733,1.3656268062837593,0.6831215493855399,1
-0.03920038671333598,-0.07036501997207391,0.055474590311576394,0.062473488398310066,0.9168146737311524,0.9859342602735476,0.06911958654239514,0.08054754095653975,0
-1.6632015081013856,-0.6520701226062244,-0.0912891821500804,0.8074776567891221,4.6794193812819715,5.795780833116269,1.1163614518342975,1.786458704069708,1
-0.3372409218651477,0.05044627684273832,-0.3641751103636139,0.08694940474011556,2.9313343930563827,2.921900313021404,0.009434080034978809,0.3409930589143258,0
-0.3935755496986007,0.5644589272119432,-0.4602505715236249,0.7456518598210632,3.7468915129574683,3.8195215121004478,0.07262999914297952,0.6881246935184158,1
0.41119539610116534,-1.0107985672978532,0.04753707613605148,0.803130318598769,3.535756819213441,3.7358249826762573,0.20006816346281608,1.0912357203767604,1
0.5562574383799829,-0.06341011347312547,0.08077761894812374,0.10091133535929407,1.4420719550151964,1.4749673055952617,0.03289535058006532,0.5598599648516895,0
1.8586735299264991,-0.3304612273533961,-0.34840875864505716,0.990859019710272,3.7342473891180545,5.162525342010624,1.4282779528925693,1.8878220026351387,1
-0.007812155786840882,-0.7334426618073693,-0.12549549687623074,0.030815446655144442,4.913327046125432,4.6283765039966,0.28495054212883186,0.7334842656370463,0
0.5219850755161676,0.5280223318132271,-0.02389088025126702,0.0874933535827286,2.3532841136627085,2.6765234152701796,0.32323930160747105,0.7424796306667927,0
-2.420852861794745,-0.0865939705901862,-0.3396435559652824,0.19177780231566713,2.7704295142283994,2.803009389022384,0.0325798747939845,2.422401101015763,1
-0.3041137754486375,-0.1249906243021589,-0.07684452296634767,0.11675409531505405,2.7768105848071922,3.0126703163477413,0.23585973154054907,0.32879757386736863,0
0.01523120775858365,0.28001415947494573,-0.041085865898640994,0.05112861298015568,4.732267787957312,4.828499034697714,0.09623124674040184,0.2804280998691919,0
0.18741250276204965,0.43336033484606573,0.017377027975562318,0.05134790831764694,1.8688942383632638,1.7008315505228055,0.1680626878404583,0.4721489447297637,0
1.4240249726735603,-0.5070333082231894,-0.8468824069565575,0.7191718929181561,3.436393577975853,3.6067979629975713,0.17040438502171806,1.5115984580720125,1
0.30018794477403793,0.017190437711195695,0.013437535098799842,0.07069484322362038,2.8461965966318354,2.7165325908314775,0.12966400580035797,0.30067975212235915,0
0.02206825514858557,0.16574842551314992,0.2894269596889689,0.0434641836395185,4.089015952867347,4.204628484310165,0.11561253144281824,0.16721108948090518,0
-0.059951213408867325,-0.46851387568280506,0.1045742533828597,0.14050325609194989,2.4976375452787,2.5130343745596497,0.015396829280949653,0.4723339916801653,0
-0.2871412857416142,0.7851057275255593,0.27545278076264673,0.054466969475141916,3.4865202441319165,3.610587558416782,0.1240673142848654,0.8359671772090009,0
-0.46759236408499993,0.40027967140981724,0.15888533785016967,0.12753335849992553,0.528705695329658,0.37861128945717193,0.15009440587248613,0.6155212703835266,0
0.505875483004065,-0.13701658183769813,0.28442146890471337,0.46521637639908,1.544761466089741,-0.4362857109834801,1.9810471770732212,0.5241026120933597,1
-0.895402526278153,0.6328758015741545,-0.0649698346683416,0.6483286956980066,4.269732343362875,3.0571848979546083,1.212547445408267,1.096484137725406,1
-0.19042502311114679,0.04536947046976399,0.1082758745270477,0.07934694857152189,0.9372942219684584,0.7737629609485439,0.16353126101991444,0.1957551487894701,0
-0.5829197150335327,0.04906808461021582,0.15491266087649178,0.1464950972331934,1.4661314935850995,1.405507919663204,0.060623573921895435,0.5849812570519591,0
-0.6104345601569969,-1.2600000761535912,1.85283649605048,0.9580463633716682,3.4773326122174453,2.3517508729915346,1.1255817392259106,1.4000823347721811,1
0.810726846416957,0.2609442391004388,-0.34957691893237114,0.10261886644367522,1.7643343531650364,1.6919102145439986,0.0724241386210378,0.8516865124098721,0
-0.3301100642151749,-0.15817004423993403,0.7456015209662664,0.48775659902246016,1.328661791531226,0.32405047732436354,1.0046113142068624,0.3660470152740076,1
0.15249786206483953,-0.28375302454651724,-0.06784095304197672,0.11831583881921949,4.94274258191725,5.121032105380301,0.17828952346305105,0.32213564980244463,0
-0.12299962522033775,1.1414684321845059,0.31798953735670105,0.8063427113412199,4.005095282175093,2.162044255709815,1.843051026465278,1.1480762559508395,1
-0.5259514657617648,0.21198218833882046,-0.05562686765796346,0.07028989150433544,0.8530537160401968,0.6893099402163314,0.16374377582386535,0.5670638345987725,0
-0.21711958868678605,-0.2740030119677634,-0.0012784640119574238,0.017059370970593474,3.2348870739304365,3.3254339347745474,0.0905468608441109,0.3495977207576237,0
0.5153064723829648,-1.0395881175754276,-0.24543686363000777,0.9810498521019853,2.744506615952833,4.229403446363228,1.4848968304103947,1.1602948826413897,1
2.4173069479810296,-0.40710015633620106,-0.20950985191808882,0.2615303275009147,4.395376042784569,4.704786363500507,0.309410320715938,2.451347265902226,1
-0.6390195685957788,-1.4217817797100027,-0.5858653066118137,0.6680949209664919,4.8116937422948745,5.5611732657961,0.7494795235012255,1.5587846028761247,1
0.272097716319419,1.3058957340756605,-0.5159587368425402,0.5401205647029063,4.057963975452195,2.849448808630714,1.2085151668214804,1.3339418411247363,1
-0.35665785184223514,0.671672052488893,0.10242220062963928,0.6980186450516002,2.6457156789567575,1.9464490230868154,0.6992666558699421,0.7604920574045201,1
-1.0639075630925536,-0.021111162979224864,-1.0034674545547504,0.3231665565014564,3.2224794086166924,2.7936707999126824,0.42880860870400994,1.0641169973305902,1
0.6152061192742617,-0.40515043520661725,-1.1940769983723536,0.2856615161320959,4.311062278148633,3.8109068026913433,0.5001554754572894,0.7366311453777993,1
0.36785553182567937,-0.9085419769825281,0.6060554965121511,0.41797177603217395,0.9133267983992235,2.400685075647866,1.4873582772486424,0.9801868272090143,1
-0.38317113579810724,0.0012857851354623495,0.25547480770264447,0.06413271542305779,2.9501704976011833,2.8677020936554785,0.08246840394570487,0.38317329310930076,0
0.5162805572381036,1.6339686984269173,0.25861459922994834,0.5315654324881285,3.318694683464814,2.5276814698731203,0.7910132135916936,1.7135925190140862,1
-0.29059843746643726,-0.009376266890236084,-0.692341278705491,0.7401456065974594,1.1185137031945482,0.7288292753591425,0.3896844278354057,0.29074966249117434,1
0.004261527924438022,0.27872577434291923,0.7883589072269043,0.6883196274354213,0.7240569031472178,0.022107693065910317,0.7019492100813075,0.27875835037413804,1
0.8467212219855415,-0.0007363528331487788,-0.21939035943092622,0.1209413714359448,0.6463678077106336,0.9060432524757285,0.25967544476509485,0.8467215421708505,0
0.42366764721376465,-0.7811774387608791,0.31613203933217415,0.8673011353126815,1.3703945577509762,1.4036803079678417,0.03328575021686553,0.8886689294245939,1
-0.1654125035237321,-0.1767971698233651,0.11157260597752286,0.138240969177452,3.286277309146265,3.1500019324194364,0.13627537672682877,0.24211265059789933,0
-0.8962602066374756,1.7951293976990987,0.1248907522600299,0.6976965035513879,4.788306720049443,3.710082175858669,1.0782245441907738,2.0064326334281395,1
1.6567015308606947,0.5408456443594111,0.46455813226290305,0.7266811440551575,0.5381587446147854,1.8850447486432698,1.3468860040284842,1.7427489702704506,1
0.06927905708349895,0.16346612616059447,-0.23318400059139216,0.0949424182611204,3.6832865001481747,3.7529241858666254,0.06963768571845064,0.17754087459604928,0
1.017386398527949,0.1764036106213938,-0.6191579246961094,0.8321148333802535,1.7357737902557635,1.8236318019197009,0.08785801166393736,1.032566374500901,1
0.37386188293464945,-0.13709919695279568,0.0242487463640759,0.01078720407799074,1.2482751594023573,1.1894936445943274,0.058781514808029955,0.3982071035485718,0
-0.158018740867827,-0.16226908339165977,-0.1425555769655188,0.07533882388902365,1.8194484726412905,1.9081647954040688,0.0887163227627783,0.22649763329938546,0
-0.5215482914407825,1.1473980192447315,0.7763275278169941,0.2592907124544521,1.9891503852511745,1.924701106413017,0.06444927883815743,1.260370911625436,1
-0.7469125588174302,0.16628248137135399,-1.5953983851122817,0.41039984742039637,3.766147388875046,4.010560148085044,0.2444127592099976,0.76519816657531,1
0.0071879660065882495,-0.2633015990106657,0.19197509225697784,0.10716157911824704,0.8202005549505939,1.066414849108941,0.24621429415834706,0.2633996941852539,0
1.267558209586044,-0.06273710276009954,0.5865579740627432,0.6270560396072744,4.095464398400056,4.284765459247653,0.18930106084759757,1.2691098292707803,1
-0.4417807311419985,-0.050271983900092035,0.1146867583375964,0.07562119885177258,1.5071792667018038,1.3246921460814474,0.18248712062035644,0.4446318553293386,0
0.5975712574568791,0.07245279889165482,0.06383928892842407,0.04535976206754974,2.71789063001351,2.482668983000502,0.23522164701300774,0.6019475191458391,0
-0.31839455971644653,0.27183507362150167,-0.6810164594888686,0.436022859145366,3.9521969268372956,6.253714603907714,2.301517677070418,0.41865188750062626,1
0.2005090151048777,-0.181521869808294,-0.5616239188019287,0.57443947953101,3.729595602729411,3.912311128994233,0.1827155262648219,0.27047006184978645,1
-0.7432268954535091,-0.579499369094166,-1.0857358132164807,0.34624096851218883,1.006370556407595,0.8688280889427591,0.137542467464836,0.9424466758952453,1
-0.9476097246325006,0.10550358985267347,-0.09002469465877833,0.1128206464247185,2.350361830975637,2.2749315179249936,0.07543031305064352,0.9534648382032159,0
-0.41424162241815776,-0.2219907341504054,-0.03795565991359621,0.09990295841879902,4.383965416440171,4.106189006703972,0.277776409736199,0.4699744756816731,0
-0.16710204996832656,0.07514673115978282,-0.11014017639345133,0.09657523633605733,0.9905612703841792,1.0177493626359366,0.027188092251757445,0.18322152250109097,0
0.3661611881939748,-0.4789672565771121,-0.24574535208911585,0.057544897994496046,2.7152503540161566,2.676203997825441,0.0390463561907155,0.6028960512498225,0
-0.3172884788828138,0.10553592304881566,0.05260703636358077,0.026629818985412737,3.9419746769395774,3.95860763436384,0.016632957424262518,0.3343797390475914,0
-1.2902547825386184,1.6381708527730554,-0.29887227336155864,0.9162442723520988,1.7077795520555301,2.670399172483533,0.9626196204280029,2.0852724394522113,1
-0.2586113917906058,-0.0041660333244858795,-0.18491104389386323,0.021051638989746626,3.6798344144541932,3.8107569769309433,0.13092256247675005,0.25864494543202454,0
0.1586511756885829,0.12245281369850328,-0.2510396229831661,0.09535851586662755,2.0032248455094614,2.2741382131850054,0.27091336767554397,0.20041179388960606,0
0.01596267780790446,0.23531409916722973,-0.2285934397290902,0.0816222867173493,2.1967426895076447,2.18709204240077,0.00965064710687491,0.23585489681090743,0
1.839167361179446,0.4509124030630218,0.17277403705168962,0.8618282491251663,1.6599518402230475,2.458776648786328,0.7988248085632805,1.8936363372262994,1
-0.01174068084627782,-0.13045763537203706,0.11909906014439471,0.1081108521272965,3.9235327187760385,3.8021255956136253,0.1214071231624132,0.13098487780502577,0
-0.4821788967842305,0.34526279913853153,0.7951171922495651,0.5398574154451656,4.284633074458254,4.247534104660459,0.037098969797795256,0.5930454358420032,1
-1.418323043864694,0.8106771240735938,-1.619141979528409,0.19289442672917329,2.687992309434001,1.9434019245004266,0.7445903849335744,1.6336577537090944,1
-0.6317380648281041,0.034853789836601576,0.2211614606825593,0.040803737609640546,1.5109582893879498,1.5294726666434972,0.018514377255547387,0.6326987981802493,0
0.25031155687060597,-0.4576829035525032,-0.6427652236007836,0.8843561462027031,1.9392755441439349,1.7828125344720016,0.15646300967193327,0.5216603451550027,1
-0.43406947133429785,0.1312162479312822,-0.19925980290906697,0.027648545857235682,2.566058104790064,2.7220667884090726,0.15600868361900844,0.4534688629504792,0
-0.2701468582253922,0.504597349324417,1.036543513152526,0.8944007689321946,4.743005276010617,4.498445077207607,0.2445601988030104,0.5723616076872015,1
0.06672642380731099,-0.02494006882856666,0.07324715063674772,0.1277593455787679,4.711717617118518,4.698766938381509,0.012950678737008836,0.07123498204735172,0
-0.5257140391232481,0.020010317303815046,-0.20082188144122376,0.01631989034069664,1.963807782627865,2.0090188430950326,0.04521106046716761,0.5260947288558205,0
-0.2197400364805322,-0.27080042079615035,-0.030269146929856147,0.036995334416868544,2.4988253309526494,2.48089151745869,0.017933813493959505,0.34873851455759475,0
0.5901189375740332,-1.4879163560091586,-0.4671756732526704,0.5316384482634391,4.409534584279507,2.785433906301469,1.6241006779780385,1.6006671868202582,1
1.5169036753480787,-1.4918843773524841,1.3802046062272761,0.3803490030628921,4.647389386525597,5.516704136159651,0.8693147496340545,2.1276079891918336,1
-0.2891339180712999,-0.22520293525284096,0.31921785843884826,0.01938552244728467,0.5526797482890683,0.6965021942592191,0.14382244597015081,0.3664898151732957,0
0.6024588963099786,-0.5392591813058376,0.19910371543259192,0.1114533477534042,3.4630332559629147,3.3559955554768384,0.1070377004860763,0.8085525254216203,0
0.5540031633616245,0.5881349712452572,0.9265550450624076,0.4507617029883729,4.77596123327537,4.844639059069133,0.06867782579376236,0.8079741638297269,1
2.3794868281098447,-0.12040953583262595,-0.8643036908318462,0.5859901686510898,2.4779374208436264,3.6886566245757955,1.210719203732169,2.382531431370356,1
0.5529733363621732,-0.48469997734539444,-0.14044409721511583,0.13799805915817964,4.318122984828191,4.57882073259672,0.2606977477685284,0.7353322913935842,0
0.3433492927888509,-0.6566711889996529,0.08297497981782105,0.11597026064551468,0.7260935442034195,0.771943379499809,0.04584983529638942,0.7410167253988414,0
0.009000155298175829,-0.26659076884620475,-0.24550484852767826,0.04126525343762402,4.012364818597378,3.9398222476640625,0.07254257093331562,0.26674264906347817,0
-0.35917679425609217,0.11441790279839652,-0.11212497687504025,0.029240778725253838,0.8122733865688252,0.731576607245532,0.08069677932329322,0.37696077516482596,0
-1.7084115749219835,0.47286278120507286,0.06905425415951087,0.7004147433043166,2.686012737503185,1.64017713529625,1.045835602206935,1.7726447244657935,1
1.020724388420701,-0.7894110038667037,-0.5746821976436279,0.1910536553439478,3.7608219132069705,3.0196134169907167,0.7412084962162537,1.2903673934746844,1
0.8638346095030551,0.6059117418154147,0.669132479589495,0.17102205832888095,0.7307909570419359,0.6113813783256086,0.11940957871632729,1.0551489333004538,1
0.16740582366282195,0.10752228904293805,0.4721764343625934,0.06933480768211175,0.5814958271937822,0.4628635584395974,0.11863226875418481,0.19896168585248003,0
-1.441418838205097,-0.5045086501522152,0.16910754670780048,0.4406808437532006,4.302957105414615,3.6057225885639226,0.6972345168506924,1.5271598623624645,1
1.5534842793478216,0.8264211953881451,0.3934943323327005,0.9516750739600548,2.6087175482594867,3.5064146602020516,0.897697111942565,1.7596264939945612,1
-0.48538534406116923,0.4868260572224188,-0.1429811694099163,0.02392884606884169,0.9684934222287485,1.3436284969188907,0.3751350746901423,0.687458029424419,0
0.6160897451850111,-0.6936733458190196,0.08026734486994905,0.43872172987126024,2.975097387899392,4.158901604477075,1.1838042165776828,0.9277657488945608,1
-0.19047224262395468,0.11876048608115677,-0.3147992367910089,0.36876681063700634,3.5257859490651784,3.0227728965336698,0.5030130525315086,0.22446320024545513,1
1.665955829760619,0.5298666625951224,-1.22386575094689,0.5966318761964183,3.506903137670384,4.511693979889493,1.0047908422191094,1.748189779984738,1
-0.004809611565275259,0.27940811040098934,0.43835406641016217,0.12511862481328054,4.49245734159347,4.621790868376516,0.12933352678304644,0.2794495026319787,0
0.275588775369355,1.6691111674279246,0.555016013626843,0.4541424950343369,1.474752461814751,2.4350746808804473,0.9603222190656964,1.6917095679643686,1
0.1643403683630681,0.4063603031865499,0.9534638150854569,0.649665415914854,2.0005489772250855,1.6609718039935117,0.33957717323157377,0.4383337229549806,1
-0.40479682811399637,0.4484025886668941,-1.0292956389684622,0.24776811269474688,2.063619277261365,0.7276414717477229,1.3359778055136422,0.6040905176993958,1
-2.752111534339802,-1.4103447895243069,0.012453926748840423,0.24812174993505692,1.3421126291374714,0.4600053359947526,0.8821072931427189,3.0924408357775484,1
-0.5758821186472142,-0.48752379000468976,-0.03394609745710428,0.023289780395482032,4.111881405588184,4.230112026707761,0.1182306211195776,0.7545327430921345,0
0.20410088896200743,-0.2601168269723915,0.044021964758732726,0.1461117237160038,4.335187434760316,4.295691263728629,0.03949617103168723,0.3306326307993008,0
0.3492264265328399,-0.3425641473019715,-0.19753166591968835,0.112477425298305,4.746657167690993,4.596459969561298,0.15019719812969523,0.48919248972733,0
0.42698714042827435,-0.1581620628600048,-0.06434006238671972,0.1236001849755157,3.7789532790647122,3.831702632310821,0.05274935324610874,0.4553386170963835,0
0.25426429623431757,-0.4806206204209311,-0.6611857622147873,0.9121347726729646,1.5506427818095103,2.7065907892945607,1.1559480074850503,0.5437338623934815,1
-0.3418550102871182,-0.6113967179784866,0.6913145289727529,0.8873888950342018,1.674472169337026,2.7053192498307705,1.0308470804937446,0.7004789752828209,1
-1.4434829147399362,0.007637054052042698,-0.1873795730021706,0.4213999948355721,3.056619109209626,2.5377831797436268,0.5188359294659994,1.4435031173297463,1
0.6418940049179414,-0.4518155773914335,-0.4628327965344937,0.141406988834014,2.110092193964488,2.1040421074323814,0.00605008653210648,0.7849619287093792,0
2.2574928004216863,0.20360028474211722,0.24765850858510816,0.7872155411038001,2.7426010161965997,3.1356237995013254,0.39302278330472573,2.266655425931083,1
-0.22554030662645166,1.6227434582606568,1.5561526701737174,0.3591329976391967,3.3672654476058463,3.5578935237327896,0.1906280761269432,1.6383420769915267,1
1.1611733492460088,0.03579132954620864,-1.4107644921796523,0.7762849601720655,2.5651625588488045,3.8669714363035377,1.3018088774547332,1.1617248238158118,1
-0.6003062498205076,-0.28817701512015076,-1.0423391776108881,0.7896682304166599,4.931145282537999,4.850261560814459,0.08088372172354052,0.6658930737116292,1
-0.6066650185143686,-0.02053576139321626,-0.11423400328743885,0.033530240622613255,3.2155186702162006,3.206962495188259,0.008556175027941482,0.6070124893155315,0
1.005442064967858,0.40363787239458837,0.2041361453013292,0.32490712605305416,3.974929032612035,2.7003252596203406,1.2746037729916941,1.0834377130403299,1
-0.7280881309275411,-0.655466113340133,0.3864465912369415,0.7447285374615028,3.0179591093514837,2.768828434452941,0.2491306748985429,0.9796673681075533,1
0.05644579868223718,-0.09781692872688519,-0.15317681366412414,0.033989982662047974,3.134094639785385,3.2261602681538712,0.09206562836848642,0.1129348472989457,0
0.10518026965903084,-0.7500236463985164,0.14228619925435418,0.6800125431354659,2.1482324558788544,1.7507831570894492,0.39744929878940516,0.757362765973132,1
-0.2913317073686963,-0.17258426561208634,0.1566081814572886,0.05844023116911851,0.8026516128531553,0.9303902697371349,0.12773865688397956,0.33861407598507015,0
0.16892991897994988,0.0715683341943606,-0.17046673569062198,0.04000837840891436,1.529591744712301,1.4188831821630923,0.1107085625492088,0.18346483037881706,0
0.5641676264212683,1.2589521372974461,1.9608545075632715,0.5229700288612269,4.900065421774531,4.261110570971759,0.6389548508027723,1.3795816738082656,1
0.9624752535977861,-0.3271650857758469,0.12412343725722881,0.668246472065632,4.361845161696378,3.003639414662464,1.3582057470339137,1.016560675581561,1
0.40500765538361483,0.26599791084935337,-0.17190173218659113,0.9722695478789104,1.935506889143932,1.7105155350527648,0.22499135409116722,0.48454730367174004,1
0.20174602628736393,0.13925740562195077,-0.26239230907322436,0.12272063223461824,4.742292983608065,4.851943077625887,0.10965009401782222,0.24514094750428428,0
1.0669874084122726,0.10802178226659692,-0.8493048745921964,0.8359590068450153,0.9416964051876282,-0.754386426349207,1.6960828315368353,1.0724415299466865,1
1.1838801894967494,1.4203655344800348,0.11130255844607348,0.5751258868718944,2.6226027032959283,2.254974292342787,0.36762841095314114,1.8490566661467178,1
-0.48855779894526646,-0.27975272979775107,-1.2607808246833414,0.3296867155607708,2.8259630328815493,1.8585549840193367,0.9674080488622125,0.5629834036093221,1
-0.47080653327039057,-0.26689851164331835,0.4065305887829843,0.634086556953596,4.131088788755182,3.4871456208300398,0.6439431679251424,0.5411964590493011,1
1.88179127776388,-0.1502275260952578,-0.7974792287160003,0.7183584841433205,4.499112047720299,3.8787307723358246,0.6203812753844744,1.8877782503951352,1
0.041352798484838055,-0.061837731787228296,0.22648110814185382,0.126092436984965,2.680353433359596,2.594757368829579,0.08559606453001711,0.07439058418319357,0
0.2737038340067498,-0.2821353258710154,-0.7211876645400472,0.8825464641817179,3.6849710700893477,5.189355907646234,1.504384837556886,0.39308285494834105,1
-0.33641937215931783,-0.4135088750651756,-0.11595197534480453,0.0497814330000115,2.803012054562663,2.9934004053474563,0.19038835078479321,0.5330737132158522,0
0.19598958568932137,-0.6277483467982365,0.049192644460448846,0.8907045343324527,4.024795144452626,4.156511967546851,0.13171682309422472,0.6576320434761302,1
-2.3794845199498442,0.7015728819442195,1.050041733336373,0.5652160770989513,3.8849541213709027,4.229332986102712,0.3443788647318091,2.480756152740623,1
-0.8012259393776958,-0.6718039085203307,-0.8959632778809746,0.49753188760152167,4.281616284344919,4.6248442132919365,0.3432279289470177,1.0456019784960546,1
-0.022608360806966887,0.32870507382766034,0.8068607484665767,0.6547412264958764,2.334635836471713,1.6960026716262504,0.6386331648454624,0.32948165888016534,1
0.4609002607490994,-0.020478073931402066,-0.054267833045201934,0.056831249606996655,2.7415847459661906,2.627293560245928,0.11429118572026242,0.46135496298460665,0
0.5922661005905492,-1.6003688643451082,-1.4724537775570954,0.9568605090770798,1.7933422475233247,0.30891768579437384,1.4844245617289509,1.706446493703798,1
0.6337508647573732,-1.1184882555517237,-0.48627589561391504,0.2937044148722494,2.6754577593809943,3.0150738425109544,0.33961608312996017,1.285556741800165,1
-2.125804630825712,0.17998964852590607,0.1250292382025433,0.35368411322074955,4.534507460224673,5.090778318858565,0.5562708586338916,2.1334107907331212,1
-1.5476341871044754,1.3700172677511449,0.3616034195426311,0.6419688958451806,4.116424546816495,4.0409421936553915,0.07548235316110308,2.0669104700085206,1
0.2793700537537488,0.09249480347018674,-0.23425364203172305,0.10654446006841468,1.7237955172918942,1.6310407642852747,0.0927547530066195,0.29428373316131656,0
-0.8285689706294619,0.5312319119321475,-0.6060092097468286,0.5621590290269288,4.419270888439801,3.540931138171947,0.878339750267854,0.9842427969485227,1
-0.06655150239702395,-1.1714035136079504,1.1723905623763045,0.7949088207038426,4.559725026695511,3.8860783675848696,0.6736466591106414,1.1732925015375972,1
-0.8774591705035495,-0.04249479655273265,-0.05142012356211731,0.021616583214652894,0.7462971811624365,0.9958951231336515,0.249597941971215,0.8784875660103764,0
-0.03247727365418789,-0.16628507482110308,-0.10968073625271287,0.14851828075219772,0.6627217123614295,0.5496423953077854,0.11307931705364416,0.1694269736856232,0
-0.20330605843332816,-0.11025595513090218,-0.3082715310022957,0.10168689714908302,2.0422891644255823,1.962951707559884,0.07933745686569837,0.23127846643715744,0
0.54544291807988,-0.03784072589393559,0.036112187639494,0.12368055151583084,3.4782763543222037,3.5945436225605665,0.11626726823836275,0.5467539642468764,0
-0.07281617243426233,-0.2670117845915601,-0.05444443435453916,0.043454920875747975,3.443785706633335,3.443899032751524,0.00011332611818914984,0.27676251205455177,0
-0.5272318606997612,-0.3024269367719723,-1.0938395212653926,0.16328729266181224,4.326555476600898,6.070391377891817,1.743835901290919,0.6078120490926541,1
-0.1992767682805756,0.018172365758858295,0.16916876893693758,0.0755925428767105,1.9066911120873506,2.0999561554628587,0.1932650433755081,0.20010363628286207,0
0.4534753992394036,0.12139848001100058,-0.2344823215667486,0.14765865239248135,3.8861075191392245,3.8576534951213635,0.028454024017861013,0.46944385038502506,0
2.686465315080025,0.004544172911718436,-0.6738429657397538,0.7734193087663881,2.8544284713588457,2.919424344958652,0.06499587359980641,2.686469158325751,1
-1.1708054614945635,-0.09214729899669524,0.08363722699822154,0.45630917469243293,0.7749171476689767,0.1631408873348077,0.611776260334169,1.174426052749974,1
-0.36451202276118344,0.29056527764278933,-0.4063647112644282,0.05677669775078134,3.8370474881007333,4.117407463652472,0.28035997555173875,0.46615147249481126,0
2.1892540685749196,0.566515244099185,0.2600981576302858,0.7797392165522457,2.480174624854336,5.025557413269521,2.5453827884151847,2.261365273141117,1
0.016176023636042466,-0.1833453607559109,-0.8537323783826933,0.5521099578459031,4.080150561962961,5.34780100276914,1.2676504408061788,0.18405755907158206,1
-0.012536461067888988,-0.0875477575885004,0.12976950812493004,0.044587114681273125,0.8042213726257241,0.9832631359016123,0.17904176327588817,0.08844078648950114,0
-1.3233569825924023,0.1442515539163045,0.41378955936868994,0.6611576368594512,0.9111227500173044,1.131505569759345,0.22038281974204066,1.3311957835657895,1
-0.4756606476259041,0.7800863280222162,-0.4371498640016517,0.24430872008274873,4.237330224868331,4.360208784994998,0.12287856012666687,0.9136671882403785,1
-0.15499652596217361,-0.22099747473050035,-0.02768357046799489,0.0491471037516503,0.8042565361649671,0.7304630004345446,0.07379353573042247,0.2699329674152472,0
-0.8879956350225506,-0.30424064421087993,0.029001263472273293,0.023814117243734483,4.184911717342121,4.26990203960103,0.08499032225890879,0.9386685343660743,0
-0.6149753958523198,0.6225699858973944,1.427957316888154,0.778967514279907,4.964037048509013,6.524990074131779,1.5609530256227657,0.8750932092320219,1
0.9885607239173411,1.2142522593594052,0.482092834531277,0.6451572817234908,3.5017385147152007,3.0582890770644275,0.44344943765077316,1.5657780347901797,1
1.6550993113948687,0.14181631223910637,-0.08358784101572782,0.3898024893411015,2.1392087670402002,0.8444039462578359,1.2948048207823644,1.6611639283938442,1
-0.7245357551677816,-0.9135030533198846,-0.8429967820792806,0.41435466419775757,2.9837122126099667,4.06833020334621,1.084617990736243,1.1659502086029658,1
0.4228236045426309,-0.13051797612458996,0.13222760266760736,0.016092166871495384,4.140606381312544,4.093795591504635,0.046810789807909536,0.4425095961107309,0
0.564276928168358,0.08214077879687888,0.05817423812881718,0.12487603093539665,3.8777663823838626,3.9799707313701584,0.10220434898629582,0.5702241306753653,0
0.6033242994990202,0.10826159465098667,0.1755819595506004,0.020490492019646762,0.6875280527107293,0.7744300666742456,0.08690201396351638,0.6129606702247363,0
-0.6845109751672331,-1.1671919042416494,0.8850520557588009,0.3168965158200848,4.9931324396349845,4.9626609322108255,0.03047150742415905,1.3531046583511728,1
0.6165828779329015,0.26742292043490196,0.18017288810979887,0.10214186192741592,2.024705670902633,2.0450199961106263,0.020314325207993367,0.6720784654591688,0
-0.0016848457732117456,0.4629995837914712,0.6884330268593473,0.9487703737553215,2.0349619867482733,0.583870625963334,1.4510913607849394,0.4630026493405357,1
0.2216571706050995,0.1231308615515891,-0.1872996626765523,0.04835480870628624,1.2056571739256257,1.223295468408706,0.017638294483080408,0.25356086122880794,0
-0.03939336018891789,0.4534702630301535,-0.8768098139796073,0.2232419545215401,2.4790227732081695,3.0965636439147692,0.6175408707065997,0.45517811489526866,1
-0.7651405413391318,-0.05205567740318822,-0.33760436891937506,0.08044214148570193,4.455405051270203,4.240780371026502,0.21462468024370107,0.7669092785660142,0
0.36974294721040224,0.46680782179520214,-0.14803638492125568,0.05269174794660234,0.6009165012292481,0.7975908457197906,0.19667434449054244,0.5954992774983153,0
-1.937134297034772,-0.24508295107768063,-0.13324753812536072,0.626533412051642,3.410085773129908,2.2890037151965226,1.1210820579333856,1.9525764870184588,1
-0.5137487902036795,-0.04543356121340473,-0.07851233547151798,0.11349359390517708,3.8703341788717935,3.916008009123815,0.04567383025202165,0.5157538443097409,0
1.672266845949087,1.045579439070402,0.17547828537791574,0.3524867568613179,2.559390074853943,2.3626696495032484,0.19672042535069467,1.972235474649841,1
-0.586607421110718,-0.16447523839921038,-0.10769037779266372,0.9524183336762233,3.589919816301652,2.2530821616393837,1.3368376546622684,0.6092293250892017,1
0.362430153032741,0.6281989120196911,-0.4370140959144512,0.9667761103145167,4.622733197717699,4.5335271325111695,0.08920606520652985,0.7252513280856917,1
-0.1390087403171375,0.4026146027827909,0.4349350192035897,0.6977803814513697,2.323212819800161,3.110055068647886,0.7868422488477251,0.42593655426424937,1
1.2589393671526607,0.8539548677694129,-0.5872319129875246,0.4657224020037738,4.839557361722579,4.224163733152295,0.6153936285702839,1.5212387210276423,1
0.08425417808602337,0.24702399589417184,-0.17515625501055102,0.12246050162403056,2.2172742459911072,2.1758982520066388,0.04137599398446845,0.2609973583630209,0
-0.41049695012116,0.27681824300095104,0.028036006200318556,0.0735697665329558,1.6707100593292301,1.8542884471106191,0.18357838778138902,0.49511219507997145,0
-0.8055299025124312,-0.43344177250206206,0.201422885796327,0.12454515096104367,0.9585157462970608,1.1253308391802617,0.16681509288320084,0.9147405063685636,0
-0.2565090923990064,-0.060678109457093836,0.6409145031018691,0.7246349784192662,0.5157821831481253,-0.39589456874862405,0.9116767518967493,0.26358821569002105,1
0.13476130559064642,0.113959419597035,-0.48382582761515125,0.03792196220637617,4.130120838626326,4.051137568655821,0.07898326997050553,0.17648614336368926,0
0.7126739145867407,-0.12219994958773289,0.11208292644174107,0.08490522055191622,4.80043174203389,4.599272035038655,0.20115970699523533,0.7230746408301383,0
0.49288169496556455,0.01601221125442547,-0.0167821797568006,0.14496397683355772,1.5368749795280745,1.5416964515727587,0.004821472044684194,0.49314172013872865,0
-2.966987171671632,0.34236020568402836,0.6364228900091142,0.6611535259500099,3.914739810659464,3.665973505238483,0.24876630542098077,2.986674302179607,1
-1.7768104702284095,0.5184365678490143,-0.4513562429802305,0.5968379816754142,2.6744924826410745,2.0734029165996826,0.601089566041392,1.850900300393397,1
-0.12824979052272462,0.19114989940889504,-0.21328669501303532,0.05973597853843997,1.7465563594669045,1.4774348327871145,0.26912152667978995,0.23018751663188305,0
-0.19866042085129867,-0.2009561620606863,0.17547244184129507,0.1444901150714166,4.424557590248682,4.429658804682904,0.005101214434222179,0.2825762585267487,0
0.5089933323395037,0.17171174426592986,-0.029830797793448757,0.1283863473645405,0.9307154998407278,1.0246962543412692,0.09398075450054144,0.5371770057298809,0
-0.07354994597241618,-0.98722580196452,-0.37178688843641444,0.1974534902681753,1.9843365955661127,1.8332288234062286,0.15110777215988414,0.9899618066456074,1
0.9510574248199524,0.025056890408856232,1.0894793634702005,0.7911954339438328,1.3795154373949718,1.6265797625284735,0.24706432513350163,0.9513874463446114,1
-0.06365978861509118,-0.04548635958560466,0.024201848639762324,0.10278467645476605,2.7000402430660313,2.7495573116366727,0.04951706857064142,0.07824051121298366,0
-0.6736016071184658,-0.17932074325391723,-0.02680975330043824,0.11870188779579752,3.689445448531194,3.7973207484845095,0.10787529995331546,0.6970617290267178,0
0.22625316075468804,-0.13371358069667508,-0.0548091977771471,0.12211609609666714,1.063336064911477,0.9990378858739969,0.06429817903748003,0.2628113666001015,0
1.7546359126865245,0.3869028063748652,-0.05212852259581923,0.7945011712752076,1.2789484605738717,0.3093160252781152,0.9696324352957565,1.796786288814009,1
1.2481862312216359,0.6406925781093942,-1.1756853379965537,0.8782537049318372,1.5354677969471233,2.5970763299017188,1.0616085329545955,1.4030166953588732,1
-0.034859356934170076,-0.05305857540388668,0.3089594692768521,0.1151606292370038,1.0338969458371114,0.8928945560185484,0.14100238981856306,0.063485330508345,0
-0.8211129732682102,0.022929737437091362,0.07871440223091855,0.08998679287511974,1.2644918294857577,1.2776005438237759,0.01310871433801819,0.821433069536584,0
0.1297463896975202,0.24875439490397233,0.20509871725325057,0.04692341761327895,3.4013536185956834,3.083340536327657,0.31801308226802627,0.2805581483820817,0
2.3516298007129794,1.3407401013466824,-0.9519309506905852,0.927873519929765,1.228614776179528,1.640263341342473,0.4116485651629449,2.7069811116741245,1
0.2228018490709876,-0.21460139709747528,0.14050592432929737,0.43811559018314494,2.4703191924921346,2.279427507905466,0.1908916845866684,0.3093451528400589,1
-0.1191797459252892,0.23099566978003752,0.3578748898190316,0.11671102780378122,4.92849643566424,4.803143084911234,0.1253533507530058,0.2599284734228719,0
0.00021574505155145678,-0.4623520014696014,-0.25762214601350547,0.11097052089493586,3.2733521866657584,3.3205188752969863,0.04716668863122786,0.46235205180562744,0
1.564013986544053,0.6639666654413404,-0.7493649132018834,0.4151804371894352,4.308383672221007,4.261036592465216,0.047347079755790666,1.6991149116297914,1
-0.43622197771207155,0.4537529092950551,-0.05653589821533646,0.5879644558189291,1.6396577125802314,1.9474727261365685,0.3078150135563371,0.6294293578573831,1
-0.07490795164025202,-0.24228179488328025,-0.35663232597104255,0.15776730990135346,4.230296192714347,5.772429646803776,1.542133454089429,0.2535974553318748,1
-0.0714827538253983,-0.3055564298979884,0.3001321698920062,0.01414873469313706,3.7526643644381767,3.7588030767475153,0.006138712309338601,0.3138064944300338,0
-0.16450417219339333,0.0017311802609285924,-0.15443293737293035,0.07253120027085952,3.2319231623995135,3.1200318434281735,0.11189131897133997,0.16451328108736216,0
-0.4651755947411652,-0.3573167199177863,0.05228090050944213,0.041429282106128305,1.318212352431953,1.3042707214399147,0.013941630992038156,0.5865693243561263,0
0.012635602461031318,-0.4199363316297489,-0.14050832591032522,0.02549449707641486,1.396468737023239,1.3962116139728793,0.0002571230503596311,0.4201263870220528,0
0.4024200323365752,0.33627069284117783,-0.014917349409810283,0.6162777250538052,4.288217756857449,3.6361753426701933,0.6520424141872558,0.5244233607398282,1
1.26104573897515,0.08495203077225107,0.7463379100678637,0.3303455836424031,4.488632868552449,4.839454635575368,0.3508217670229197,1.2639039533602667,1
-1.4889465343730925,-0.828421401004445,-0.5017954990045276,0.3634237805337307,0.6356286192968554,1.1423976918013299,0.5067690725044744,1.7038907828449013,1
-0.014803237629293451,0.1746081955157438,-0.19130005793480398,0.057661679260056414,0.5595296580738229,0.46111507267297674,0.09841458540084619,0.1752345793089182,0
0.09819947271772508,0.02354411729341057,0.37471527877942723,0.013036439962680502,4.7512941003113465,4.59649915773427,0.1547949425770767,0.10098248314022144,0
-0.23473707180967446,-0.35091682651263184,-0.10756581369066015,0.014103884056657993,4.275948644598252,4.372376968692694,0.09642832409444235,0.42218966355357024,0
-2.164131067359139,0.5944509914150414,0.2699712315801147,0.4254481435100942,3.5190977359158726,3.3327538737691924,0.1863438621466802,2.2442894772963964,1
0.672306285355276,-0.29959038674977423,-0.07922694407311287,0.03988385222671009,0.8105341667576733,0.5862029362829427,0.22433123047473058,0.7360367797610994,0
-0.7466802347215769,0.12785381375546992,-0.4187394900260201,0.04427361374722472,1.0223268822811231,1.0071347744758932,0.015192107805229949,0.7575473388612011,0
-0.8961875872856725,0.9924994548727559,1.1945749928869502,0.5087057827169341,3.992254556029898,4.781959796848695,0.789705240818797,1.337238707010694,1
-0.5436805074653293,0.037050742156974466,-0.34633150479453095,0.12599830184240962,2.4882516716087957,2.4484919220755086,0.03975974953328709,0.5449415121755183,0
0.21145392613382366,0.012324356304289675,0.19931625905492445,0.05535895006518478,4.751313164523858,4.507489323993883,0.2438238405299753,0.21181277731931952,0
1.5618401532987278,-0.6002410488365747,0.7449912988122078,0.1985332073596039,3.212663523626197,3.1336412424194773,0.07902228120671984,1.6732106804478106,1
-0.2011704789073549,-2.0825860179965376,-1.3541006040320993,0.5854812970826212,2.4547876213154796,2.3261964229642658,0.1285911983512138,2.0922796380834208,1
0.4449937515185534,0.9511609400676948,-0.04922077699898141,0.21414928698214714,4.845524676124962,5.632873096974809,0.7873484208498462,1.0501078862674145,1
-0.6819102976912177,-0.0702557993190136,-0.07046097466983409,0.017025028768290863,2.8324834356368154,2.7385361442093643,0.09394729142745106,0.685519898642832,0
0.008666164681425408,0.08929821974873475,-0.025900742725467493,0.01014379940550991,4.560814742498036,4.731157830321758,0.17034308782372154,0.08971774886040614,0
-1.1190543818667145,1.356846202862962,0.08968299482517493,0.6449375784189139,3.860609415308906,1.3832660223714037,2.4773433929375024,1.7587820580727824,1
-1.4030412279233773,0.35307126811533407,0.27800570161529276,0.789944971718844,3.0535954734645525,2.979497817052879,0.07409765641167354,1.4467840224516264,1
-0.4401069187800139,0.07480029614543814,0.7494494978879092,0.9264067425737581,2.019047612985376,1.7726151604026352,0.2464324525827406,0.44641817196601996,1
-0.1273204056417336,0.055080822922729505,-0.027788870173066905,0.07906237050341704,2.209036010806534,2.1187443445162577,0.0902916662902764,0.13872412460210617,0
0.17518090519190221,0.7055000624595996,-0.39652526563990165,0.09873835010136843,3.890624497968185,3.9328033006547267,0.042178802686541506,0.7269241278664185,0
-1.3652146382761379,-0.061777445876606635,0.4669762943504421,0.7645149506180774,2.5788463495268865,3.656669110689042,1.0778227611621554,1.3666116717570076,1
1.488632585938576,0.6950985137358054,0.19252307939850555,0.8314146783076013,0.6790063882897328,1.814160753907765,1.1351543656180323,1.6429208501068753,1
-0.5119634921479468,-1.2216051631259297,-1.6718037264651457,0.6003184030100528,3.631142890690948,2.103102482681593,1.528040408009355,1.3245473913259012,1
1.1893837583364844,0.6272394692988861,1.0022512674831352,0.9965645375982287,2.367072818900143,2.761074981031831,0.39400216213168804,1.3446423600500501,1
-0.38886488717733003,0.28110353749272227,0.14884582391231946,0.12346825350984775,3.6417277130888532,3.724510608862176,0.08278289577332298,0.47982819766074597,0
-1.2409316403517436,0.8670608842680871,-0.2711726354136007,0.543544192962191,1.5368520677855988,-0.6761700435429334,2.213022111328532,1.5138381396483003,1
2.6425862636025954,0.16074002961884173,-0.20061938938412144,0.7666801171969181,3.1781491386748897,3.9083757112575856,0.730226572582696,2.6474703997784363,1
-0.9344278420085053,-0.1484322984214355,0.026345057613030312,0.13107626029845154,3.5260722411126295,3.3862165546353316,0.13985568647729796,0.94614350874238,0
-0.3804432186969859,0.07086915100474558,-0.14811630804098058,0.11450171662309282,1.904288200934093,2.0864882179540283,0.18220001701993538,0.38698769905083036,0
0.4129557592505587,0.003163616037163622,-0.2504822368971089,0.03795100161085012,4.574077888802287,4.504390727084944,0.06968716171734268,0.4129678771583039,0
0.004694547888774339,0.08045879750569261,0.43976740765225686,0.0420956822172161,4.504610193632881,4.499656404074947,0.0049537895579341296,0.08059563807019611,0
-0.07652201000559927,-0.7489191174899027,0.6283785734030558,0.7621880186875237,3.4523574753606154,4.074502493871231,0.6221450185106154,0.7528183463207786,1
0.031681171475857445,-0.2092765816867279,-0.1447577578227761,0.11055392833549489,1.0397882377893641,1.1013457293073978,0.06155749151803369,0.21166101263237966,0
-0.4582888327109698,-0.9488101017658401,0.535002772622117,0.9137745802712388,1.291247015382162,0.4005316996119087,0.8907153157702533,1.0536931542913655,1
-0.32174460070504685,-0.26025130457094675,0.17821573547947944,0.08126224676251478,3.2348845501372514,3.113425824772159,0.1214587253650925,0.41382403218485236,0
0.025353357055087268,0.07790857470185622,0.2607748291862758,0.052017489932996444,4.379191929451911,4.335023565813706,0.044168363638204866,0.08193008437709225,0
0.4089796731998135,-2.3162128158952204,0.49777967804247075,0.6872943627160311,3.5942112987333603,4.835380394712077,1.2411690959787167,2.3520429803912797,1
-2.738544449010923,-1.5274537488754945,0.33859837967259315,0.7676669279429418,0.5099914490458798,1.381954830813121,0.8719633817672413,3.13572011731952,1
-0.0870914715729532,0.6841606823356476,0.6923378122747432,0.4615340069165287,1.7187306257690451,2.4697594574631436,0.7510288316940985,0.6896816393632075,1
-0.6549820526137959,0.5294952151220731,-0.7011119291679984,0.3393897804586733,4.863812370293432,3.0462205313438573,1.8175918389495744,0.8422390824957909,1
-0.6114365185037145,-0.009662942206831275,0.1220488515579039,0.04538181705142639,2.761547344085491,2.806315116182707,0.04476777209721616,0.6115128687215304,0
0.16273905405591324,0.3691859176970727,0.26098804080160665,0.025387391563844394,2.860301253066146,2.813853795967937,0.04644745709820919,0.4034628130829943,0
0.5013875922670299,0.5256165033239524,-0.25394502331638613,0.48555119676701053,4.880844166055373,4.8357497168674755,0.04509444918789729,0.7264036248848349,1
1.193709313808658,-1.767525990513303,-0.1922574077935257,0.8453839552398682,4.980120192299604,3.231182035745258,1.7489381565543463,2.1328595952414613,1
-2.5712271392331956,0.00842655388753351,0.5130571724590154,0.9671985880247588,0.8288919078876802,1.7707159373623806,0.9418240294747005,2.571240947157567,1
0.593856744750603,0.4727101050097913,0.21485465948402435,0.09327601886878578,2.853794411461037,2.7093967596731905,0.14439765178784647,0.7590261370098864,0
0.6104863835185115,-0.3638222439753039,-0.10200763490286709,0.05192371487658261,4.8788455906053425,4.815642069439776,0.06320352116556638,0.7106759104350848,0
-0.9564314261135838,-0.19765599781823812,-0.13986377465133437,0.1376182153409935,4.5687141252218675,4.390665116976006,0.17804900824586145,0.9766416775517964,0
0.7083843020104224,0.5669280538203196,-0.25947353659252437,0.26192880841221755,3.7138171632468757,2.664661822186642,1.0491553410602337,0.9073123704343993,1
-0.06912534075736253,-0.15297826316045518,0.05556856189436957,0.10870843831618149,4.175507599275362,4.1737803360638654,0.0017272632114968545,0.16787096751496658,0
1.5582142316690555,-0.7806168196629611,0.5608708983589937,0.6519432313995567,4.860682449863669,6.779150216393433,1.9184677665297647,1.7428121559470202,1
0.6165284579205283,-0.021636540170150726,-0.21984971151330296,0.14106733214753067,4.279375862900242,4.384847244233242,0.10547138133300038,0.6169079990536671,0
-0.7302631982658432,-0.19387066217110335,-0.021118591857735656,0.11922887613021363,3.3638468506870116,3.4087940038626137,0.04494715317560205,0.7555595094975115,0
-0.4803275999340162,0.013234867058700276,-0.1973547236347054,0.0693149103424215,0.5547054716482407,0.6600854687383191,0.10537999709007839,0.4805099010056232,0
0.9182279145175769,0.6860931723810094,0.6409737992773408,0.6283867248983364,3.5935281482000305,2.510858600235374,1.0826695479646564,1.1462400901151277,1
-0.3053861213236447,0.08494575553480753,-0.05194947667966185,0.05124291068952162,3.3684345567419296,3.136966822550499,0.23146773419143063,0.3169802272705336,0
-0.07779659394591043,-0.10407881433600694,-0.14917570128723787,0.1170344841800466,3.970716560086756,3.893062674156374,0.07765388593038214,0.1299411775503588,0
0.9777820499898134,-0.22922951423663185,0.44847744731262335,0.21929697779573587,0.9523963954544996,-0.1027151395542023,1.055111535008702,1.0042927399316617,1
-0.18508553610904271,-2.065588911800281,1.1458537026151163,0.4201456622064589,4.761766506688778,4.715383027917477,0.046383478771300446,2.073864558795738,1
0.01368187381523018,0.14756757776883056,-0.0889940405974255,0.06114021643919228,1.7313199982674965,2.0726938124146423,0.34137381414714585,0.14820048474838313,0
-0.10231828875911127,0.03468521515387375,-0.9925172025970519,0.20961969663246893,0.7331536476333804,3.4102141788409774,2.677060531207597,0.10803747666834591,1
0.36344988079013013,0.39550714705699386,-0.12218285184395117,0.9659666880188306,1.0762542391405896,1.0116186927867212,0.06463554635386837,0.5371421778444906,1
-2.854195008274147,-0.49680724271110127,0.21885522886369374,0.3107091624473711,0.9668946007835508,1.118882759774653,0.15198815899110207,2.897110039620046,1
-2.0908718004217897,0.6168129527258381,-0.48775401762054876,0.5201415957828425,2.5148448794681557,2.3040535618833475,0.21079131758480818,2.179954840002293,1
0.2995744455223707,-0.21812781915140905,-0.1678196445142096,0.0989448546959835,1.9193310308660574,1.8800672873328932,0.0392637435331642,0.37057333133643827,0
-0.06155910959425412,-0.12162315388637132,-0.29267872570104586,0.06820109002515208,3.6483780632995475,3.3838925584640247,0.2644855048355228,0.13631476638759774,0
0.009241738400292413,0.5007367710190715,0.011475110761396257,0.04184168250404087,3.3240113603782855,3.154093617688124,0.1699177426901617,0.5008220478166527,0
0.15790295564319734,-0.28969826660615117,-0.02040764016369294,0.13077546777774024,3.4924320656419785,3.4103209372269476,0.08211112841503088,0.3299370077385473,0
0.008048451832343996,-0.04852003308327373,0.16602353289904534,0.144367872024417,3.357921428904397,3.5842910809150794,0.22636965201068238,0.04918303759732148,0
0.31950864886529845,-0.3274376983334917,0.7278810138656049,0.7565468007846984,4.486903930836616,4.607766098439347,0.1208621676027315,0.4574945059666436,1
0.7682329745836106,0.2534069715950168,1.3360033232047035,0.3476805765966957,3.452520353269364,3.225455187625651,0.2270651656437126,0.8089480802193303,1
0.0014330407331133131,-0.2009800860598553,-0.18159834843562417,0.054472571994129616,4.4533200258560655,4.346905352256794,0.10641467359927148,0.2009851949730865,0
-1.4439519638674283,1.4868787623743591,0.15625311244790566,0.9331752491695194,0.9100951313868497,2.7140992299757105,1.8040040985888608,2.0726325598032345,1
1.6235473470712514,1.8633447449373592,1.2862598561415008,0.8904781548961427,0.5767943745473059,-0.8203045582831829,1.3970989328304888,2.4714286610516942,1
0.44693421022717517,-1.4225005070420493,1.2637156395263613,0.9568276383612885,3.107025998580865,3.7966283772901575,0.6896023787092926,1.4910593149859184,1
0.07711951700250752,0.08363940863447003,0.37257911062276955,0.02251682336788907,4.636436139741763,4.648712789921194,0.012276650179431137,0.11376717707416277,0
1.242063244468784,-0.7237173663356179,0.1947175801795694,0.8512601289314405,2.32287852525233,2.787744165482475,0.464865640230145,1.4375284100135501,1
-0.03609715257612882,-0.23751047006645415,-0.21287448208683993,0.11267033897265429,0.7821032972983963,0.9556283644539447,0.17352506715554838,0.24023785674887366,0
-0.058877100307204604,0.08725306715701983,0.13947749574238696,0.08790752285260883,3.1939631788866647,3.330984238689276,0.13702105980261114,0.1052597295687769,0
0.4451192782451626,-0.19350641259065146,0.13810649243023698,0.1141680131849912,4.832646606833117,4.899919424962583,0.0672728181294664,0.485361621452704,0
0.03756259266417992,0.0673087832215645,-0.23540407760453885,0.08101958803222112,1.2540494268702793,1.3710237229835367,0.11697429611325738,0.07708061148189385,0
-0.0460753315105916,-0.43459939463044656,0.1340334524260926,0.09438162933770536,0.664473505316427,0.356919886723797,0.30755361859263003,0.4370349757021302,0
0.046095315442697654,0.006940833460455558,-0.5078767823930778,0.3055438790361158,4.024510984558991,5.222412898482482,1.1979019139234905,0.04661494690426645,1
-0.915618605021648,-1.3171646677286541,-0.18950100681167278,0.2239347254189099,4.485392373431276,4.128256744654753,0.35713562877652283,1.6041446916579953,1
-0.39457619963969864,-0.1806491953503694,-0.12435313751776647,0.13246524964152145,3.282146471886332,3.4100167684012743,0.12787029651494253,0.4339637186480493,0
0.02756245324838884,-0.31250641389690104,-0.1597797796186261,0.09455238821815105,0.6372511247257224,0.5456224787549626,0.09162864597075981,0.3137195364585554,0
-1.189322468517023,-0.35424753492024774,-0.09774039404642478,0.02377514101586494,0.5982052854897028,0.47632341997140487,0.12188186551829788,1.24095900420461,0
0.0511708809498317,0.552011511885887,-0.07032148565637361,0.1240826347280636,1.339551608230876,1.3497273853184166,0.010175777087540583,0.5543781816699902,0
-0.21009922174275011,0.4285852874614114,0.3654763889457285,0.5325391164577585,0.615903762832601,0.6291755152239613,0.013271752391360359,0.4773122998680109,1
-0.2683730899852989,0.30998249434034814,0.5971281879143541,0.8353047741073029,3.8467478659133705,1.1905094906365448,2.6562383752768257,0.41001617312701377,1
0.9412865169422393,-0.21302724657016092,1.0965778011283074,0.37308789934606057,0.8950578157347915,-0.7635232149443458,1.6585810306791373,0.9650911432390812,1
0.16483338594858407,0.16485044746212374,-0.0062806033849007615,0.13321542309615506,2.0640718590754195,2.0078917364628817,0.0561801226125378,0.23312167456445848,0
-0.4298339995716169,1.3961371037262058,-0.5737587682511436,0.31432080523605255,4.1975697016485585,4.972698227919521,0.7751285262709624,1.4608066537323587,1
-0.63034516362416,-0.9677259688067432,0.8987208036403608,0.8316755202346682,2.0639882258425053,1.6181283909169162,0.4458598349255891,1.1549149648382424,1
1.3151044749554957,-0.2024401353999831,-0.0293036558023081,0.04179026433524265,1.8472801476725655,1.6661162387910626,0.1811639088815029,1.330594524439633,0
-0.06773154284601893,0.1781655080317517,-0.10498530415607983,0.12548391675529474,1.8713799292375999,1.7336770699917552,0.1377028592458447,0.19060564039008468,0
1.8019138781989361,1.205866735615816,-0.7318291222455012,0.6098913855328866,3.0138667494577738,2.647626734035236,0.3662400154225378,2.1681808523531134,1
-0.6674973013382439,-0.06289551818839237,0.9426312620463698,0.6310319334847312,1.2338027487351786,-0.5626425311744359,1.7964452799096144,0.6704539458471587,1
0.37424029901457045,-0.017557129632637666,-1.0311598052740298,0.9817823568610288,3.1269555375140103,1.0246701686032935,2.102285368910717,0.37465191072174225,1
-0.7837994205741615,0.338913699566102,0.14232745261591584,0.9566776348826784,0.9595518131831882,2.4170670251272504,1.4575152119440622,0.8539344397821026,1
-1.1716396005209382,0.08816590378503805,-0.47367335973182384,0.9381269599505104,2.591882592454206,2.250501815404684,0.3413807770495221,1.1749521607704274,1
0.17349904373941413,0.09853162760853697,-0.32358212915801093,0.10457548270286134,3.912073140668411,3.884071296321394,0.028001844347016913,0.1995254365179501,0
-0.08720225244844962,-0.13621751770587803,0.22008568845137286,0.03405345724999836,3.9971611216734657,4.045812153175696,0.04865103150223016,0.16173881711584986,0
-1.2332465594598003,0.045188995367115084,0.3886475514366162,0.6632666527079106,0.9638313649318696,1.9797073033140893,1.0158759383822198,1.2340741961979935,1
-0.06968336390886683,0.6490626820217691,-1.0057595676786486,0.48945861996497,3.2627662551208347,2.5745048075975383,0.6882614475232964,0.6527925676652176,1
-0.46185373549153774,0.13991539258109217,0.2251860661268113,0.054813967356448404,1.9544131940933984,1.653294664981647,0.3011185291117515,0.48258179624661396,0
-0.5912009021216738,-0.6004867359876365,0.20693993921745638,0.025297027986961138,4.5280298331794135,4.493441873400871,0.03458795977854212,0.842675991568863,0
0.08314129525505844,-0.15432476743951137,0.08712497590143714,0.02436014142075054,3.8668276042198086,3.7435027632163975,0.12332484100341112,0.17529577525413462,0
-0.9132954538460158,0.11774176744629053,0.04755947262781187,0.050710549946615835,4.878851733375498,5.258340895763291,0.3794891623877925,0.9208537939418919,0
1.5094541524150862,1.6721195721304192,0.41567581708858004,0.8520363284299023,1.5668126154966093,2.3092227542650727,0.7424101387684634,2.2526508166479693,1
0.7503509293802726,-0.6210487412523841,-0.6299783776816141,0.2793947428946965,0.6165510269462432,0.6427613184648941,0.026210291518650952,0.9740267225456444,1
0.8025610024370862,0.8873085618982846,1.2844222260866947,0.5900369992606037,3.145005463183272,4.131474057174275,0.986468593991003,1.196419929059535,1
0.2804524802851672,0.22832015451007104,-0.12810284487119608,0.11606283811759105,2.733076498553663,2.832876678729994,0.0998001801763313,0.3616402724443239,0
0.46427677050236715,-1.2047892167950345,-0.3128799949941116,0.9083168612062001,3.992397113516154,2.6756278625106438,1.31676925100551,1.2911506405271618,1
-0.6253928282830783,-1.115318153848069,-0.026235617669631776,0.2873259409618368,1.2922136597111857,2.942315873519732,1.6501022138085462,1.2786910392940793,1
-0.07181193359036817,-0.12733627408267714,0.2749967272423645,0.06886441131684239,3.6155943776948636,3.3437959770605556,0.27179840063430794,0.14618987825169746,0
2.8171792651057825,-0.21343248302562345,-0.27559254742719635,0.66592049300685,4.284241934440354,5.015931821736768,0.7316898872964135,2.825252632341476,1
-0.6389590932543107,-0.7335766145470233,1.5856506286442091,0.4936206644156803,2.9971145544257967,2.7485201467077256,0.24859440771807106,0.9728326537810308,1
2.067712135755857,1.2851230348831684,-0.22487081464878833,0.373842565757773,1.4167605206351002,-0.04615436634297865,1.4629148869780788,2.434537880407568,1
-0.8507333951197062,-0.21429309347292644,-0.03384273163310935,0.05798279778143273,4.984865766832574,5.111736197717014,0.1268704308844395,0.8773077222286936,0
-0.05488468121768019,-0.12960890796937596,0.053964726475436244,0.04252480842474015,4.083982526855648,3.965775383370697,0.11820714348495098,0.1407508339491477,0
-0.5125659919112106,0.2135793347934458,-0.07839073363572174,0.01296912708839814,3.467403329368989,3.3280643569998793,0.13933897236910964,0.5552837367641285,0
0.3220959431617627,0.07312104698557396,-0.2460952116354502,0.04632086163234026,1.4842125000794264,1.3129212272052297,0.17129127287419665,0.3302915138382032,0
0.42933607074541813,0.18311913230952484,0.29113497149167145,0.09808376237290437,3.546233523485768,3.634679408189378,0.08844588470361003,0.4667569798737968,0
1.8920666413247955,0.9448512088854563,-0.5939799134951325,0.17912961779281875,4.092525478727822,4.135995254200435,0.043469775472613215,2.1148664218211044,1
-0.4004038177931257,-0.34575445218611844,0.17351589550125446,0.02949063109243276,2.1018770539306773,1.898090951642056,0.20378610228862115,0.5290268032055025,0
-0.4272097503564711,-0.07042208019728241,-0.3700755369763683,0.021145515468735047,3.356348634968133,3.449849980069357,0.09350134510122432,0.43297510341698725,0
-0.5500597568161213,0.12296953764472204,-0.05983903003386429,0.027801233043982597,0.9561780389892162,0.9598428150159213,0.003664776026705119,0.5636375105128891,0
-1.034845799588732,0.630705356437682,-0.6468157726563518,0.5108113748477603,1.710470329857094,2.075710604875413,0.3652402750183188,1.2118973040508116,1
0.7474108752292364,0.09077460816525969,-0.10714292659990994,0.07261350320865483,0.8573871604504397,1.000256456030865,0.14286929558042538,0.7529030786884123,0
-1.1007350797729505,1.2409909095009413,0.3187600139232178,0.9297722421888427,1.0226083464481546,0.734461456809965,0.2881468896381896,1.6588176974299307,1
-0.29335654836564723,-0.0983481094889339,0.1675492451110304,0.017719142922578132,2.986980204995367,2.940339577542703,0.04664062745266406,0.30940332110217184,0
1.9533447844727776,-0.4408445430581,0.5735997967643935,0.4462127631843955,2.218446475760752,-0.2319002093178284,2.4503466850785802,2.002473410103392,1
0.8469607936464429,-0.48211524451864723,0.18838699987774143,0.1613844307153377,4.444820742261891,4.318266898902557,0.12655384335933384,0.9745653877352137,1
-0.6102649637147368,0.22489968449485162,0.2992006339111052,0.14968402860212873,1.1247222769223457,1.1998470155729775,0.07512473865063174,0.6503869571444625,0
0.31940053516288813,0.041256315609677914,-0.042877786395355666,0.02311946720598538,3.5559604361502033,3.3939840689829803,0.16197636716722297,0.3220540101287743,0
-1.0555816780331417,0.5992278383018166,-0.2783200715891179,0.2876364732612696,3.076304598687577,2.2261355101555615,0.8501690885320157,1.2138066902085898,1
-1.1278022073935992,-0.7237013575717985,-0.5397873297890885,0.38881617825852843,3.167184844851732,0.41995270273746055,2.7472321421142714,1.3400304003839387,1
0.3468627556400745,-0.25799947284130975,0.16276825385211138,0.09300423660994997,4.560858649787465,4.610843230035968,0.04998458024850283,0.4322933023268112,0
0.3891501051849137,0.9941622970089097,-0.7477960048167899,0.2999288112667254,3.4352764326598315,4.906574120381146,1.4712976877213144,1.067612512646541,1
-0.6098852314102379,-0.6169188671270117,-0.038125466488400137,0.8165357045020188,3.3058924395985008,3.204358064362984,0.1015343752355169,0.8674957545196373,1
1.073680329743578,0.7612061812585638,0.31872238391532837,0.2817675238492175,4.320186028149671,6.142869801375855,1.822683773226184,1.3161399245006298,1
-0.724049628203237,-1.5456778131090048,-1.2241999330139814,0.8895424960340619,4.036351263166031,2.9255620795097297,1.1107891836563013,1.7068590351984787,1
-0.36248725047707786,-0.20404604296902876,-0.1885741670779384,0.10673337004982238,0.9746754235746605,0.8990120210800852,0.07566340249457537,0.41597090572508855,0
-0.4840342192374769,0.5011585368820396,-1.091127755154226,0.998811459001004,3.7368497164164487,4.547640999456853,0.810791283040404,0.6967417057149518,1
1.6550624694439526,1.1150683640395243,-0.40013726904895597,0.8571520086009368,2.345672996026625,-0.6113587549522559,2.957031750978881,1.9956475726549754,1
-0.4001082091107153,0.0783095622501779,-0.24643969326262094,0.06973089087994748,0.8815640722061144,1.0933681039876018,0.21180403178148732,0.40769960330811994,0
0.23843259765299482,0.09870500510304417,0.29384268794539786,0.0733113931978781,0.8229911280193086,0.8259310705059528,0.002939942486644198,0.25805577237478505,0
2.760946488108993,-0.009367165184916254,-0.11174238487345033,0.18831059141883805,2.9964814779964133,3.392847842663897,0.39636636466748376,2.7609623782270165,1
-0.18384211950299217,0.2567511029469141,-0.051486104822169323,0.07680793706557437,1.7362918648378378,1.5857760293129124,0.15051583552492542,0.31578323857958224,0
-0.19779918952599101,-0.23586745610203907,-0.25856185798563247,0.12839207226087748,3.3457831540947884,3.203809534696524,0.14197361939826436,0.3078278353644879,0
1.5436680925956006,1.4441973301018383,0.1645385692360488,0.20611813324798892,0.7887135269081149,0.8417605585195879,0.05304703161147295,2.113910383240268,1
0.11694130089761047,-0.7238969414720824,0.17588851905006173,0.4966320378029714,2.0551868570023055,1.1225272177610266,0.9326596392412789,0.7332816987544835,1
0.5112167458131625,0.27660530916269577,-0.20693315236050266,0.5279170133281518,4.03624861273136,4.047970761817226,0.011722149085865219,0.5812512866710834,1
0.0655919653617066,0.5422629241968967,0.70896560676934,0.9425370577149775,4.4241943184397226,3.39177098277517,1.0324233356645527,0.5462155113859186,1
0.5711253384018953,-1.2999244025391654,0.15278247546250992,0.8861615909450028,0.967329384944575,-0.7117781509514665,1.6791075358960414,1.4198547828850265,1
-0.24909223240149916,0.12826073084145373,0.015686901439519924,0.13116379334345582,3.6786739856449824,3.6618969200320355,0.016777065612946895,0.2801745086883286,0
3.019651027581146,0.403723669523942,-0.25149665022093687,0.3804628009717318,4.769635892009572,4.131704145000686,0.6379317470088859,3.0465201672901734,1
1.4678273846635148,0.07009201729596788,-0.659471543841734,0.160584903942091,3.459467798819969,2.9929448725867536,0.46652292623321534,1.4694999564670808,1
-0.9301680616558722,0.16684577578514215,0.25955476275823375,0.05557138393086862,4.850804749096784,5.104836819108835,0.25403207001205086,0.9450132992831309,0
1.4509490818347883,-0.9432136727335134,-1.0119223258275896,0.8459612291058255,4.322867345438681,5.4871183390036595,1.1642509935649787,1.7305794609056986,1
2.573005797026945,0.22179042704085916,-1.2465657541028408,0.5015598075127461,0.7120918585908762,2.188056553433336,1.4759646948424598,2.5825471583421726,1
-0.2989717012996819,-0.20473811124343022,0.07225045667270724,0.08617809211658586,4.417602912707031,4.446752932207766,0.029150019500734814,0.3623558642737184,0
-0.0011660605659178057,-0.17526588274479676,-0.25429073988556355,0.01848459015585516,3.8981012785033817,3.7923347004784875,0.1057665780248942,0.17526976165772645,0
-1.7459453595027494,-0.17162233941919602,0.6610908374085885,0.47675344277232334,2.667707392449894,3.1264438403713632,0.4587364479214693,1.7543601186064686,1
0.13192922434740403,0.1974330311580019,-0.14509434187162046,0.11793710689404276,4.227121635967483,4.241150160433274,0.014028524465791392,0.23745551589538663,0
0.8142125826878379,0.34318741656221835,0.028085173488966844,0.11595078798434133,1.7817822246986044,1.9107199555501377,0.12893773085153337,0.8835834610798512,0
-0.8377750106859612,-0.1522840222143908,-0.0057408143400709604,0.06328086791107987,3.8687391886182456,3.7538975150637173,0.11484167355452835,0.851503019343828,0
-1.0829938896694697,0.2765907155867412,0.001043798280438905,0.29952469242181134,3.7716780100701026,4.274403070475523,0.5027250604054201,1.1177558718298881,1
1.2264432667874978,0.4949863499481659,-0.12041236297589544,0.8364878399555088,4.599457189804243,4.9369795179721,0.3375223281678572,1.322563636761346,1
0.3283634084676429,-0.30089172405720815,-0.28494918186923607,0.02896246738005595,4.2238566227921766,4.245827964540174,0.02197134174799764,0.4453744016292441,0
1.244834540980076,-0.4052275942706889,-1.3464153264840981,0.4840153729480102,0.8267604411578182,0.34623253501002854,0.4805279061477897,1.3091304127456083,1
-1.276936984972383,-0.4226299993800625,-0.8120746906550648,0.6238346500293015,1.7785481574874042,3.7224366209068607,1.9438884634194564,1.345059173407011,1
-0.00658036565910905,-0.40606285831082456,-0.49480919491547143,0.47799890938674994,4.291545098758567,2.8532965862217576,1.4382485125368092,0.40611617317187004,1
-0.5824028704025155,-0.01880590556997615,-0.2699840949901484,0.3473659842306971,4.837516352184187,4.225262490476863,0.6122538617073232,0.5827064145325638,1
-0.3178991000177034,-0.14733030197942185,0.443289515354606,0.9885372075696967,2.7075171866646253,2.352484775775493,0.35503241088913207,0.35037987338517806,1
0.9975156412550369,1.2029252851009353,-0.699532157022017,0.9697227787613654,4.837158472280754,5.301327972625139,0.46416950034438553,1.5627113284556473,1
-0.22859921437187453,-0.7919856840308207,-1.018911638193691,0.22684241194240698,1.4965351295757754,1.3653523437104524,0.13118278586532295,0.824317247497106,1
0.28521034017317953,0.1157281948732783,-0.22765242699161978,0.10823684519884776,0.5239106405075568,0.8917661274378653,0.36785548693030856,0.3077953106048373,0
0.15686365405373767,-0.5435501870875009,-0.1076388534112734,0.5197443310383629,1.0925103572598345,0.4771632066267628,0.6153471506330717,0.5657322793035129,1
-0.016664009352533895,-0.011177189189896337,0.013730291414856733,0.049086444119081835,0.9143014373711394,0.8792428286933807,0.035058608677758785,0.02006536234131028,0
0.6298345431049369,0.024107594882126104,0.41425109083097245,0.0650239561596219,4.430404571367473,4.544228233792014,0.113823662424541,0.6302957463121621,0
-0.3436309265461026,0.5248123798137725,0.04621182421659082,0.03832541060185711,2.9773925626830153,3.128488216304005,0.15109565362098953,0.6273039515934268,0
0.4547130788199913,1.1381005922740592,0.03546821815680776,0.7225901467212347,0.8561407816985869,0.8491794358625256,0.006961345836061228,1.2255761674349415,1
-0.9619461304300001,0.8353401722580447,-0.8640262444059036,0.7176473473101093,3.969138241930532,4.472258023892592,0.5031197819620599,1.2740225905522047,1
0.03244983336740117,0.36140876166452174,-0.019923989956094745,0.1255577508333661,2.622422708377679,2.5286975156125067,0.09372519276517233,0.36286262509861106,0
-0.34911398141105704,-0.2227079200326955,-0.10769997739886819,0.12461935982802322,1.8781412935397526,1.781974154506056,0.09616713903369667,0.4141006999051914,0
-0.22329210495911372,0.0795398318524713,0.2530397775905899,0.09916630699375505,0.9938128940487658,0.9899887747609859,0.0038241192877799257,0.23703575466201562,0
-0.7377192741246164,-0.13094164628044686,-0.6756639680932032,0.4070424741930112,4.76873208790295,4.881430596949916,0.11269850904696632,0.749249919683402,1
0.13493611688883986,0.16066959790102636,0.78943097261303,0.27928991637454037,0.8794288708544862,-0.02670236250188618,0.9061312333563724,0.20981533626195237,1
0.9444820266110923,0.6657853111347563,1.1296417215585512,0.7555277952742347,1.1537026156720753,0.7887483114554574,0.3649543042166179,1.155558903351188,1
-0.148425611560341,-0.4526998945799202,0.3005654170499161,0.04059687137511032,3.0046029282596898,3.1753254779048325,0.17072254964514277,0.4764109116295849,0
0.6076167126854183,-0.5479370195967702,-0.27153351840026413,0.8461323271445487,2.1386867203151043,1.0277999963523778,1.1108867239627265,0.8181888822143855,1
-0.41473369910038954,-0.7170314347740474,-0.8929860694680408,0.6130802743223331,1.8315215039564925,3.396351908991557,1.5648304050350643,0.828334545714243,1
-0.058139768925554086,-0.7384558713501561,-0.07755218456324482,0.021157989263995793,2.1854305348131313,2.09588439180497,0.08954614300816122,0.7407410523673136,0
-0.23007457985740656,-0.24771518850417873,0.0345624559542568,0.13887422080556291,4.931013827860287,4.585382037468692,0.34563179039159486,0.33807858097226884,0
0.5180828290678576,-0.17101150759476041,0.08945331165021381,0.117294005011558,3.5226530798263553,3.2834396861018553,0.2392133937245,0.5455774495933531,0
0.13459991552836034,-0.1491931190919038,0.02559767273545281,0.14636953629595817,3.3163696207140636,3.2518232227208674,0.06454639799319617,0.20093711465185501,0
1.0188673214908883,0.6305611989135604,-0.6857837134406524,0.5126979862118971,4.784928144133343,4.1573121529125565,0.6276159912207868,1.1982061777412616,1
0.6561852918223453,-0.5209397840779748,0.04292507314581835,0.8560125661018729,3.794138111860056,2.4689410302588755,1.3251970816011807,0.8378289776793254,1
-0.05645986893712227,-0.20135041751639518,0.12372170952205673,0.08840058257573485,2.114219864376561,2.2355867829862675,0.12136691860970661,0.2091164924974204,0
0.3442741685474521,-0.03310639623583419,-0.1018877888440462,0.03546172053903328,1.3071020463015843,1.2507770402902487,0.05632500601133561,0.3458623087310375,0
0.2559611828608338,0.06152942659414591,-0.01563398722715864,0.021003267676239338,2.608972888973568,2.7503911660945795,0.1414182771210113,0.26325272547216216,0
0.01858450926167583,-0.1925297768079383,0.16680551374526617,0.011744177661582065,1.996052707169204,2.0766745128601682,0.08062180569096422,0.19342465960216101,0
-0.5487492179489293,1.5310271040806942,1.141853173348939,0.24139293722692368,1.5387827596125996,-0.2870307793725835,1.825813538985183,1.6263977673463765,1
-2.1398902847959977,0.9045720916424225,-0.7601688229080619,0.25681579945879596,2.5620898197347146,1.5787780874598734,0.9833117322748413,2.3232264418137643,1
0.999588804916164,-0.38298693167281994,-0.4995469189135302,0.7174699798131466,3.3149284125511884,3.284962455409076,0.029965957142112476,1.0704469948324795,1
-0.2688638015557042,-0.20340714062740106,0.9644612912912207,0.7115292441099507,3.1325002812614255,4.800528719806315,1.6680284385448894,0.33713826339530256,1
0.4684476258950283,0.6063531479509732,-0.1911037536838475,0.011154555538239044,3.820412833526885,3.9759900443742424,0.15557721084735743,0.7662292856819969,0
0.5960550088399365,0.06740092351581103,-0.0846754980471473,0.024013931798615457,1.4994851471182862,1.4777494602560715,0.02173568686221472,0.5998536972078783,0
0.47899541601526985,0.04848036922098354,-0.3400144329956613,0.10855704108151673,4.762226583051115,4.481275708411522,0.28095087463959345,0.48144257680791414,0
-0.261496811922787,-0.15528981086130725,0.11889329631064548,0.06404984607510064,4.344732920163106,4.246229518318994,0.09850340184411177,0.30413074162787623,0
-1.0722265499920085,-1.0210238894762886,-0.24089338079016043,0.5241869535264713,2.7547340010595853,2.981882438610868,0.2271484375512829,1.4805943257317493,1
0.5933035539426363,-0.4161972503581907,-0.31761682300887484,0.039731691938571935,1.1570945868363314,1.3455242027483838,0.18842961591205243,0.7247270233175256,0
0.1891814258853084,-0.1487922497687948,0.005430981844499519,0.02339600941931662,1.6549124323374311,1.7719426905153424,0.11703025817791124,0.24068391199093023,0
1.307328997896382,0.30295538986953563,0.7768003174833232,0.17827063691142025,1.6476269093812534,-0.21451384986409017,1.8621407592453436,1.3419728301987939,1
1.0291009556977897,-0.10191514464148373,-0.35095168365525176,0.1457468477668,0.7568908524019169,0.8911274358059407,0.13423658340402378,1.034135133203296,0
-0.007872301731307749,0.29128928097363044,-0.02056630126385817,0.09823971181510631,0.904445832812723,0.9744125223387622,0.06996668952603924,0.29139563885666403,0
-0.015025403746476493,0.2155976439794219,0.008841234976090503,0.14604625662897025,1.074111362580037,1.2678024384324187,0.19369107585238177,0.21612058404331178,0
-1.6791749691238511,0.8373077459462229,-0.6269151709009666,0.24919986421715928,3.625206221561493,4.074427200290345,0.44922097872885214,1.8763562663720423,1
-0.3585333331887984,0.1801526371697333,-0.059133122417085654,0.07907003481816709,1.663662160106528,1.6333113240760149,0.03035083603051314,0.40124945319175137,0
0.328057437649224,-0.05771602779948382,-0.2110203260533369,0.10886692876174169,1.3184603797961518,1.4298292168350448,0.111368837038893,0.3330958154374283,0
0.48681210224354104,-0.12408550610183132,-0.20317938233448662,0.19099971463875529,4.659552299763956,5.36802087776588,0.7084685780019244,0.50237758281528,1
0.06471661624108807,0.2466285009510502,0.20270522701819715,0.029335607164301405,2.5652323246856916,2.424358989220089,0.14087333546560243,0.25497815180728417,0
0.6849218749750398,-0.32518376759683393,0.15206386315188478,0.12965493626258975,2.059358755787232,2.0506661745228243,0.00869258126440764,0.7581968461605441,0
-0.44005696650841436,-0.04016621209368038,0.34330806317549434,0.03023652259696448,3.359364605878594,3.1869084849439835,0.1724561209346107,0.44188625048369884,0
2.6281257349497924,1.5799263544088042,-0.2187080980287384,0.9897982968021368,1.2004340488593825,1.5359277010087728,0.3354936521493903,3.0664657448047388,1
-0.40730156056709144,0.33340964046495686,0.031807252946347,0.06458985864284898,3.4392325573907736,3.6150040788818503,0.17577152149107667,0.5263616148574665,0
-0.0171297516302076,0.06026974410145332,-0.054010979628862414,0.1391253385219105,4.197366039697123,3.965195806250768,0.23217023344635468,0.06265676695271842,0
1.3734394546329816,-1.131253285972148,-0.07061972642443783,0.4121835885557381,3.345080826677432,3.131789301529376,0.21329152514805605,1.779345366297764,1
0.13155661469081634,-0.15078002205653002,0.1974474476838514,0.08303520455188108,2.454814935529744,2.4408837603207862,0.013931175208957924,0.2001043675692152,0
-1.1359521030683277,0.05902573660226656,0.23157867827399622,0.48553388596408176,1.3880587840525642,1.0827960372213319,0.30526274683123233,1.137484601235022,1
0.9546190371321652,0.9222007128706114,-1.2716643325756682,0.23365044868800489,2.463286751646447,0.843834387988083,1.619452363658364,1.3273099339921353,1
0.017625853965175076,-0.035571423111287,0.07157088022093103,0.08457926925386071,3.558291497307985,3.772605521613501,0.21431402430551572,0.039698827062822406,0
-2.384922365724777,-0.40342437854405033,1.6774808328069177,0.38695533931139336,0.5316959908346337,-0.20422999883542192,0.7359259896700556,2.4188025797360813,1
-0.9740067160820722,0.5709876849384607,0.03625557037408808,0.43537296191141894,2.2825529599771315,2.1241160445741394,0.1584369154029921,1.1290332233040645,1
-0.5908657665249527,-0.18467881638559658,0.24916431099270084,0.05891172305026362,2.8716865876024324,2.6738413128570557,0.19784527474537672,0.6190546173583594,0
-0.7371747624990703,-0.031746953301245114,-0.07505903394268412,0.13792040013881404,3.83345877989392,3.4052647804582614,0.4281939994356585,0.7378580483463416,0
-0.9155376871796422,0.6715719305112214,0.2725203061625207,0.3916830351585069,1.1461337155937041,0.36439457250201734,0.7817391430916868,1.1354374110873824,1
-0.11284359245997164,-0.5731370794752875,-1.1322228067603064,0.9513713761030396,4.752708791096778,4.080479317135804,0.6722294739609733,0.5841402128160106,1
0.3374201164888482,-0.2455231017000539,-0.10878795339431874,0.09874215368290667,1.2210152043942784,1.2808718254912572,0.05985662109697887,0.4172935758908384,0
0.0026194631218157106,0.19073956417849286,0.0393703852949641,0.0627328394603592,1.902749305079967,1.9894460836259007,0.0866967785459336,0.1907575501259333,0
-1.1914037006053575,-0.12792632099811713,0.0881840293304445,0.5454442654724272,1.828086430248574,0.5604096533229137,1.2676767769256603,1.1982520275051711,1
0.6192711405842346,0.12845728701449557,-0.15907221112422434,0.9372468248473136,2.38539313093922,3.231382818296265,0.8459896873570449,0.6324539668210037,1
0.006971581183240716,0.007293606692023987,-0.19155667138059346,0.03695659368757385,1.4281345122626867,1.2062551095090217,0.22187940275366502,0.010089580901724963,0
-0.17167291609106172,-0.5803713355193946,-0.44897785879168545,0.12028065203889517,2.2244691467626327,2.1769672148724952,0.047501931890137516,0.6052292765653148,0
-0.7451454345804944,-0.1310571120261469,-0.15569831302366974,0.12264729779736039,3.9366152120764424,4.061340042116192,0.12472483003974943,0.7565829004734299,0
1.1073494422503773,0.25426638599253837,0.09985169711633286,0.06568385996570512,2.3402882498642144,2.3265323462424456,0.013755903621768706,1.1361664412831107,0
0.6379585038982665,1.3206161842489184,-1.4047125174062192,0.20371311171246728,4.036882290720414,5.845183161809478,1.808300871089064,1.466634978035192,1
0.17656790395718022,0.1557153712403739,0.09666413572517789,0.13901904060322826,4.171761225358777,4.192685894780896,0.02092466942211857,0.23542196488084854,0
-1.3284458222356557,-0.10793779375778194,0.014727778588047944,0.015959910292453503,2.5820402227942707,2.4598804946773223,0.12215972811694842,1.3328236454747735,0
-1.774290003001323,-0.3961777949678697,-0.06385867292636353,0.6056990493613593,2.368306111542213,1.6479504711938695,0.7203556403483433,1.8179829097040592,1
1.4101196446680526,-1.0788883729457295,0.9134243146328861,0.5639238280195539,3.994858948479637,3.6420054770768178,0.3528534714028191,1.7755104994215716,1
0.6179365849673034,0.17102624773368524,0.4426555836022608,0.13583160719767676,1.4821424953927886,1.4734563329112524,0.008686162481536197,0.641167373199009,0
-0.05128047012636431,-0.30452253778844857,-0.49270523024828466,0.992039424347319,1.565974259283482,2.2092551306617363,0.6432808713782543,0.3088100753497172,1
-0.6160090520857645,0.686730167281382,0.8684765825485857,0.3256037567740694,3.459205147663167,3.680131809777331,0.2209266621141639,0.9225320996615333,1
-0.18638039122882033,0.28688015415806056,-0.209270007137484,0.09617974149847253,1.5512348797245947,1.515582382180447,0.03565249754414768,0.34210798453757363,0
-0.5937756272773705,-0.19563532158161126,-0.04519664067044975,0.049908120535256825,2.7885681102411626,2.7263030668966572,0.06226504334450533,0.6251741154262349,0
-1.156427670741773,-0.39191896292686806,0.5348235004503857,0.9218296692213975,0.5008101754278326,1.252670642744647,0.7518604673168144,1.2210345741046462,1
0.034942970104105485,-0.4032542033942423,-0.21638917583579295,0.011458407543529973,2.534895627275459,2.5279564446855076,0.006939182589951187,0.40476531930838805,0
0.47552249647726264,0.057633416802834785,-0.30176973672589924,0.07002197887987763,2.2864168268342753,2.258186461018352,0.028230365815923086,0.47900235426179016,0
-0.8226995288235693,-0.2004871657875159,0.5019520510300901,0.34722603026854904,3.20259887596106,0.7734391134425849,2.4291597625184753,0.8467760142871513,1
-0.45562460304654046,-0.14251883479616345,-0.15852456607423665,0.029909203274061748,4.402823904319111,4.296957881854806,0.10586602246430488,0.47739438326500416,0
-0.8306267924914053,0.1276348646233128,-0.48720986530277016,0.3822872245726447,1.1072056295141164,0.8266448371937651,0.28056079232035125,0.8403758248973916,1
-0.3848564912761539,0.2507024379887851,0.16807271991095574,0.058323954862666505,3.3073669610445786,3.327701473506785,0.020334512462206522,0.45931060437454846,0
-0.033253410288597594,0.13778165102173898,-0.08997326014203359,0.13264309762155957,1.2516527574143386,1.2538291073037366,0.002176349889398077,0.14173768960335875,0
0.795087769558774,-0.10363179292170084,0.5377399301781367,0.7264177889834323,3.4687577247084596,4.62560968693537,1.1568519622269102,0.8018130142409217,1
1.3991448446433197,0.04072868062717885,-0.03166692441876758,0.5218075440091273,2.414621898545166,3.746367955501337,1.3317460569561708,1.399737518864737,1
-1.2503192025340217,0.37438720289815897,0.519700172419086,0.666836307459629,0.5841040350360072,1.1943275982470412,0.610223563211034,1.305168144692177,1
-1.7354790838850405,0.03207280190107753,-0.9591644774299155,0.44177849510139755,4.101087843756521,3.460962238442619,0.6401256053139024,1.7357754218862085,1
-1.9995389305749594,0.6355528871941825,0.9976368900468785,0.9950417719060893,4.91144671626389,3.648930906995385,1.2625158092685047,2.098114250298518,1
0.9660306800933218,-0.8998627127806492,0.46633003630505876,0.7438664906048018,4.659554156178422,4.9004462146582854,0.24089205847986328,1.3202152009178334,1
0.41956110928237644,0.08624736943298467,-0.3331307325476636,0.3226443522333069,2.533205818763137,3.9683965310634366,1.4351907123002996,0.42833413727645847,1
0.12421585516568162,0.004295962596382019,0.3215234773648893,0.12777875419219414,2.293983624975409,2.176593835362621,0.11738978961278823,0.12429012015913055,0
-0.14151629245692554,-0.25344843524243077,-0.14915274882213322,0.0989489495630341,2.4374111941086665,2.468534513786494,0.031123319677827332,0.2902808473833413,0
-0.02863427715755162,0.46860611173331096,-0.03382699213439299,0.11375509158264385,3.0080172630785365,2.936970444430858,0.07104681864767848,0.4694801484430921,0
-0.6426410941432024,0.028756391585701785,0.02224418309668553,0.05250173619095248,2.6926940934502284,2.752149136920331,0.05945504347010244,0.643284156449234,0
-0.11421665012288951,0.615753422193756,0.0826450899372071,0.01005595696250549,4.201162536354625,4.1865337287927815,0.01462880756184326,0.6262569122242216,0
0.09505706251998365,-0.15747155939317878,-0.10987667678999005,0.08148054781784002,3.20501755284444,3.2823117010881098,0.07729414824366998,0.1839378622052771,0
1.4928568705425385,-0.12165300041940007,0.487951164124593,0.7093443176192312,2.798232250607892,1.294892853465558,1.5033393971423339,1.4978054240912282,1
-0.41646858601424724,1.038675820929815,2.0100327641520024,0.7040880936295055,2.2638503150199143,1.6607362606090597,0.6031140544108546,1.119059222794277,1
0.6712222401810382,0.1959558514366646,0.04934564225725453,0.02132270157108697,4.551188500409316,4.5647349702902815,0.013546469880965084,0.699241010972554,0
0.8661899906078689,0.4300712195960255,-0.3289725377630344,0.18501448121092556,4.239461366318762,2.9410284247566274,1.298432941562135,0.9670813583944594,1
-1.2408034131101604,0.05506566107975555,-1.2521408359126487,0.40444601014171677,2.378427877400271,1.0950243890890488,1.2834034883112222,1.2420246925951086,1
0.33165961402381683,-0.29212272302481673,-0.08178310698399727,0.1368182975400105,2.468637149106781,2.4582073061704404,0.010429842936340528,0.441965818680428,0
0.4039338249630654,1.1937253821921792,0.7833059559418852,0.9327807253260206,3.8879645046903546,3.3700387065195745,0.5179257981707801,1.2602153875584747,1
-0.029187772752511318,0.2343515706173739,-0.2532717309692819,0.05778627304289527,1.8344101157944486,1.889422076978287,0.05501196118383844,0.23616220004285662,0
0.7534976310660045,0.932175570363275,1.3497532142733437,0.9297365300823771,1.9545072242162145,3.804551902758802,1.8500446785425875,1.198628371933594,1
0.05761236079169049,0.3647449542079597,0.2847262363637027,0.11581240309863113,0.5272116943279028,0.516678151241709,0.010533543086193808,0.3692669301957035,0
0.07364775933126785,-0.5773010053522122,0.029104498442072357,0.12478695177654256,4.523858935988533,4.774347353199229,0.25048841721069603,0.5819797618776715,0
-1.8992832663288577,0.07582875683302237,-0.003508623337420311,0.4472167962351885,4.611014123856096,3.7304069983149297,0.8806071255411663,1.900796392599601,1
1.4413852871139545,-1.195842101248066,0.8471075994764572,0.3220948677962949,2.086751722434951,3.551936865807079,1.465185143372128,1.8728667536762904,1
0.2901675308631064,0.04825553317948572,0.20257811480747454,0.1374582467177583,1.4993414181199425,1.5613838567556946,0.062042438635752095,0.2941526686087146,0
0.2654702889695322,-0.9111934916511948,-0.5121773434347591,0.5701421831446998,3.3738086396233156,4.893474078828526,1.5196654392052107,0.9490774750003621,1
-0.4186476432374008,0.047110020105189214,-0.019593146419351105,0.08489918022947081,2.4788321892855887,2.43293902455585,0.0458931647297387,0.42128992770127005,0
0.058797561438452564,-0.18115708465341554,0.5953477275752707,0.49441541409508327,3.75378680098934,4.619420715670875,0.8656339146815353,0.19046008125387684,1
0.1220341618827012,0.18854699025810082,0.36768737990566586,0.09734364171736623,3.8872248780093854,3.718962212581002,0.16826266542838342,0.2245936423895425,0
-3.3087909003236793,-0.039926534032093536,0.8438958670550974,0.8505194461498905,3.033856797585748,3.057892875872054,0.024036078286305607,3.3090317844022894,1
1.712786742213643,0.10666936714399625,0.7719553025938314,0.47175537776833676,2.7640515972506052,1.9014374164137704,0.8626141808368348,1.7161051186304774,1
0.6085978604605798,0.8446671083392951,2.0888171544289524,0.48976279516080523,0.7010384345845373,3.2225628653153233,2.521524430730786,1.0410830320716316,1
-1.8242041230716473,0.3696421079194776,0.3879588890538694,0.2837667147014632,1.6505723320807346,1.9192231419157455,0.2686508098350109,1.8612780476271547,1
0.5760440480276695,-0.024611328544187114,0.23908129978458798,0.017977543491463334,1.273232571609463,1.5601357917629823,0.2869032201535193,0.5765695645460432,0
0.359573971988057,-0.043109942035463956,-0.21015275284386015,0.3081877575010168,1.3757598980397177,2.2580466039828115,0.8822867059430939,0.3621490141275675,1
1.3870802153009465,-0.9137112037016938,-0.6419454271499183,0.2811317072300926,0.5055771909486895,-0.8589517920873428,1.3645289830360323,1.6609815433800936,1
-0.7008529767579091,-0.46035445872805225,0.011333789659453102,0.2552433783066214,4.494093579601174,4.9472964968807425,0.45320291727956885,0.8385231795849297,1
-0.34219307837023255,-0.16678988751658164,-0.0838626061968953,0.13452215619725016,0.8030777066094726,0.8619728239571178,0.05889511734764519,0.38067698835402447,0
1.5810793887945227,0.05141229729097257,-0.8485219171608878,0.5036431869276342,0.8784034330401256,-0.647860856638288,1.5262642896784135,1.581915060293566,1
-0.4741113078469396,-0.5803920923692426,-0.6275898984209749,0.36787589553656735,3.5108768269491897,4.9899930299360955,1.4791162029869058,0.7494241209842949,1
-0.4469308035724939,-0.1254116696991144,-0.3704685006219752,0.020678358101441204,0.8725940056630691,0.7184834729341675,0.15411053272890163,0.4641930956818238,0
1.4790956744348147,-0.1382304043522003,-0.7406920474706684,0.1530347333191098,3.7955279841647895,2.065215377760857,1.7303126064039325,1.4855408640690946,1
0.2502338374700002,-0.07881954686303595,-0.16726769993292556,0.13145695249709397,1.870761961280168,1.9559774420494649,0.08521548076929686,0.2623537580875426,0
1.2207465218922746,-0.26676254082057654,1.6045481482566988,0.6008667202299982,3.1003858602094665,3.8728598722365155,0.772474012027049,1.2495536498674777,1
-0.08033520915983869,1.1312887898372967,-0.6930523311576854,0.276720873208284,2.3277267194190876,3.8047491234093025,1.477022403990215,1.1341375894671204,1
0.3307784243771199,0.014405690789898888,-0.1522837935754844,0.028339814197087664,4.966315790728871,4.98158404078497,0.01526825005609922,0.33109196601630825,0
-1.8622748994369571,0.09767522601076822,-0.0596640057657687,0.7534061344062605,2.0155541349672115,1.2596027463218193,0.7559513886453921,1.8648346443717694,1
0.6252311490496213,0.5501325343890724,0.013812793554778114,0.382615451003943,3.717481015802225,4.495611465156683,0.7781304493544581,0.8328023745975114,1
-0.6900971106389562,0.9894334480829022,1.3648633582409486,0.911953053836538,0.535670504006939,-0.5982651131291451,1.1339356171360842,1.2063219181866245,1
-0.9889823901383412,-0.2761654734545313,1.22155171381654,0.6629539896318358,2.4420158202698765,1.2034943471494381,1.2385214731204384,1.0268171875909127,1
-0.18327479030834223,0.05469672073203036,-1.5821854312645303,0.9714898695410954,2.408311835739452,2.924116223553268,0.5158043878138159,0.19126259441251062,1
0.06016563018847801,-0.7301784419599452,1.4754278636238052,0.6697920931330241,2.733071806476228,3.804912064446598,1.0718402579703703,0.732653028492362,1
-0.16187834274533053,0.23465276965637333,0.010702854862712047,0.11876595182314162,4.6696443132267245,4.5349698032628805,0.134674509963844,0.28507283307495596,0
2.1150414569608254,-1.3440298960251411,0.051544333156950714,0.8150781141246511,0.7596801329686691,-0.37590237664927795,1.135582509617947,2.5059562498320522,1
-0.5364520130622843,-0.05591731854947904,0.2021819130685489,0.07663761922821632,2.966653412276099,3.109629850425502,0.14297643814940297,0.5393584233441999,0
-1.2866927647989839,-0.2329513610030819,-0.6045008220206618,0.9057850417645964,2.329987681548471,1.869569540738678,0.46041814080979293,1.3076102659352447,1
-0.45467724756832606,-0.16722412293230368,-0.0070063798305698595,0.09040626976023027,0.5001382348042209,0.4267026377496202,0.07343559705460073,0.4844536167134962,0
0.11760655972265242,0.22680866501440508,0.2868850632889603,0.047232419825690826,4.122906433230482,3.9170945551400402,0.20581187809044188,0.25548673823784757,0
0.00935405006247244,-0.06260199839200188,-0.028497770345311604,0.1401287668861905,1.9224559019613674,1.849454453529128,0.07300144843223944,0.06329698614660453,0
-0.5152227474180421,0.07118903945608095,0.3930758793416833,0.8177049207345539,4.75165936659106,4.347825274880709,0.4038340917103511,0.5201176393813952,1
-0.23528338434160376,0.38223098442140424,0.5835607438767327,0.5946504121950095,2.360975294954209,1.8841266357963065,0.4768486591579024,0.4488416161620874,1
0.08662189535128234,-0.30672891907381017,-0.23814188638903222,0.12426900391499468,3.8663293074328946,3.670902592904183,0.19542671452871163,0.3187255599264617,0
-0.10175371158731743,-0.03856470973000109,-0.06489621134001237,0.33921372896966606,1.2105151749862615,2.4258053476238164,1.215290172637555,0.10881661021348818,1
0.410877915297144,-0.12458074323560323,0.1696174317601849,0.1058181890140604,0.7508338411434878,0.8923735075844297,0.14153966644094185,0.4293495346032908,0
0.0037705442255092955,0.15338403229629707,-0.08494887797420156,0.14152475970528083,1.9910615319637284,1.8963138032866818,0.09474772867704662,0.15343036976826988,0
0.7875029237735836,0.026033347005335005,0.16506150344806275,0.08158644714418942,2.9991359792193406,2.8191771894558086,0.17995878976353197,0.7879331127121405,0
0.11720352290346202,-0.1990328763857387,-0.0424088624733982,0.12761386219347698,1.736167167715514,1.778880356723349,0.04271318900783516,0.23097781638798798,0
0.08790323357605728,0.17594897093770462,-0.15558114483491303,0.052539440842491826,4.6811512274525935,4.440212709192299,0.2409385182602941,0.19668507530355248,0
-1.4929255577146099,-0.21248768768549967,0.33021565272167586,0.7886085490370957,2.65486135337624,3.3369026960722357,0.6820413426959955,1.5079713983678236,1
-1.6348008887693333,0.7596932988838621,1.4938014130609987,0.3925251153664783,4.079145763227979,3.158246732044269,0.9208990311837102,1.802694609269703,1
-0.13546762155350306,-0.2894834249328265,0.03438416978148909,0.031233992228293497,1.5911172663562834,1.7158597842833438,0.12474251792706048,0.3196124681551121,0
-0.17797855635810114,-0.33235127583127044,-0.2796714148920445,0.14873129511626665,2.8403060953001487,2.7241138497973614,0.11619224550278728,0.3770062825338419,0
0.07443720835037411,-0.29929164817255755,0.13965310729841912,0.14328269365679733,3.8689035535679,3.8812698185631263,0.012366264995226306,0.3084094496814956,0
0.13464057102486676,-0.05082456114420125,0.013786210461694526,0.011435720912942924,3.144962123879892,2.7100350418996197,0.4349270819802724,0.14391393046332535,0
-0.3406468960746833,-0.04416877317706064,0.054151304709968665,0.13123482907801862,3.542799029339453,3.6989421554091217,0.15614312606966863,0.3434984546243006,0
-0.15831226753013483,-0.11374524707038494,0.23333308613579778,0.2782853988563785,2.416535888610051,2.552585122801492,0.13604923419144122,0.19493782414307362,1
-0.08622717736757994,0.16412652079380677,-0.14555186029828857,0.027649940908511347,4.506842827486978,4.348637159242091,0.15820566824488758,0.18539860016909507,0
0.01502674348290093,0.11300134214561193,-0.07049054070757152,0.13057557580435378,4.026919291178483,4.061733486867763,0.03481419568928068,0.11399608039933021,0
-0.5800378548459009,0.16221891756349618,0.20774251324252382,0.2521142735056633,2.2106125527214946,2.323693315794352,0.11308076307285742,0.602294687233506,1
0.6620018485220174,-0.10343520842880485,-0.6753831485097778,0.18039844698528726,3.501535506144871,3.1633297809254692,0.33820572521940173,0.6700337974977668,1
0.7550500482504019,0.1304728085337711,-0.2329093556220233,0.05682367413010814,4.605635055275109,4.734319879068811,0.1286848237937015,0.7662399944727659,0
2.173865663102797,-1.2450791689124854,-0.6808989517943912,0.7918080161903048,0.6929945915329776,-0.8834031211764495,1.576397712709427,2.50517745041687,1
-0.834528605368139,0.9049897760040073,-0.27088834704761866,0.865716572931198,0.8331276936798997,2.996883196030703,2.1637555023508037,1.2310339101135575,1
0.3199549158823934,-0.17136821317210502,-0.10616728114293655,0.143420487591441,1.0192758898051282,1.167954556744128,0.1486786669389999,0.3629575907500895,0
-1.1456078294855796,0.6913102549166786,0.6557604134705796,0.6188298570416577,4.4919353731365295,3.0264438183435,1.4654915547930294,1.3380310786867486,1
-0.24641101748718236,-0.09242917118982322,0.23317734789368336,0.14077952133164023,4.593320687464666,4.736951261956631,0.14363057449196504,0.2631758750833863,0
0.1883975891515054,-1.3887220295628029,0.28278846837131355,0.7472641957703722,1.654701005584562,2.5533683973736685,0.8986673917891066,1.4014430159628788,1
0.17353409603555062,-0.12190976837464501,-0.1788888400374361,0.08487996175304575,2.92993420872135,2.841516348730542,0.08841785999080765,0.21207563299925644,0
-0.10688692254527078,-0.4359474295232617,0.5292401825676057,0.2029926713122518,1.4226421251191959,1.2701830682435804,0.15245905687561545,0.4488596389954636,1
-0.06905054120339126,0.252247869232912,0.035391849947966667,0.07652705967704206,4.062011911661164,3.7208187569802345,0.3411931546809299,0.2615281338078668,0
0.10383825867958157,-0.11633062958526934,0.19948418762487016,0.05533665893068951,3.8049976943401616,3.6120977383626873,0.19289995597747422,0.1559333169829746,0
